aX,aY,aZ
-0.305,-0.755,1.01
-0.214,-0.671,1.098
-0.399,0.744,1.071
-0.814,1.372,1.09
-0.566,0.671,1.323
-0.213,-0.125,1.769
-0.389,-0.127,1.547
-0.549,-0.211,1.364
-0.621,-0.744,1.361
-0.64,-1.137,1.302
-0.676,-1.178,1.187
-0.658,-1.23,1.177
-0.513,-1.056,1.249
-0.559,-0.895,1.377
-0.427,-0.603,1.434
-0.387,-0.439,1.47
-0.364,-0.418,1.48
-0.343,-0.431,1.423
-0.374,-0.5,1.438
-0.305,-0.607,1.259
-0.355,-0.698,1.215
-0.499,-0.784,1.107
-0.424,-0.795,1.044
-0.367,-0.757,1.118
-0.239,-0.81,1.331
-0.25,-0.8,1.3
-0.347,-0.552,1.289
-0.166,-0.409,1.276
-0.267,-0.388,1.139
-0.292,-0.365,1.089
-0.293,-0.374,0.959
-0.312,-0.369,0.886
-0.335,-0.374,0.848
-0.26,-0.39,0.824
-0.218,-0.395,0.821
-0.166,-0.368,0.832
-0.133,-0.307,0.842
-0.114,-0.272,0.806
-0.069,-0.204,0.783
-0.029,-0.219,0.748
-0.031,-0.081,0.698
-0.007,-0.06,0.688
0.067,-0.036,0.724
0.12,-0.042,0.698
0.157,0.098,0.649
0.17,0.134,0.634
0.245,0.178,0.673
0.263,0.226,0.654
0.354,0.227,0.755
0.461,0.151,0.815
0.509,0.041,0.94
0.48,0.074,0.949
0.396,0.264,0.892
0.273,0.318,0.807
0.269,0.341,0.761
0.311,0.331,0.774
0.432,0.349,0.807
0.477,0.412,0.854
0.521,0.444,0.863
0.526,0.492,0.872
0.532,0.519,0.886
0.558,0.596,0.892
0.573,0.639,0.881
0.61,0.709,0.858
0.621,0.724,0.833
0.602,0.749,0.826
0.714,0.874,0.817
0.762,0.887,0.79
0.788,0.923,0.776
0.799,0.984,0.796
0.805,0.971,0.915
0.934,1.001,1.003
0.898,1.09,0.994
0.835,1.194,0.988
0.837,1.257,0.998
0.857,1.302,1.014
0.882,1.409,1.046
0.945,1.444,1.077
0.962,1.519,1.082
0.99,1.593,1.11
1.037,1.689,1.135
1.051,1.731,1.126
1.034,1.748,1.134
1.092,1.746,1.159
1.096,1.683,1.187
1.075,1.608,1.2
1.074,1.511,1.192
1.107,1.518,1.198
1.122,1.4,1.164
1.103,1.352,1.127
1.069,1.304,1.107
1.061,1.263,1.102
1.063,1.116,1.103
1.05,1.113,1.182
1.057,1.054,1.254
1.079,0.961,1.305
1.086,0.871,1.411
1.084,0.83,1.457
1.073,0.766,1.514
1.043,0.722,1.535
1.003,0.638,1.536
1.005,0.547,1.509
0.978,0.477,1.476
0.85,0.332,1.346
0.79,0.326,1.341
0.834,0.383,1.299
0.806,0.217,1.199
0.749,0.325,1.181
0.79,0.253,1.142
0.886,0.291,1.121
1.084,0.538,1.08
1.178,0.638,0.874
1.193,0.488,0.752
1.091,-0.7,-0.134
-0.41,-2.363,-0.628
-3.55,-1.565,-0.793
-0.272,-0.795,-3.899
2.199,-1.15,-1.034
1.999,-0.135,2.312
2.867,0.632,3.327
2.592,-0.013,3.008
1.289,-1.447,2.78
0.765,-1.702,2.25
0.13,-1.31,1.627
-0.436,-1.892,1.19
-0.824,-2.178,0.447
-1.101,-2.601,0.22
-1.292,-2.891,0.181
-1.152,-1.283,0.272
-0.34,-0.841,0.555
0.132,-0.347,0.914
0.413,-0.307,1.512
0.457,-0.809,1.782
0.193,-1.326,1.938
-0.47,-1.503,1.716
-0.946,-2.079,1.572
-1.049,-1.511,1.446
-0.706,-1.316,1.487
-0.416,-1.241,1.51
-0.373,-1.26,1.387
-0.382,-1.27,1.289
-0.381,-1.28,1.182
-0.383,-1.264,1.177
-0.388,-1.323,1.177
-0.399,-1.392,1.219
-0.372,-1.38,1.318
-0.345,-1.321,1.341
-0.333,-1.218,1.357
-0.322,-1.207,1.352
-0.326,-1.203,1.358
-0.327,-1.232,1.38
-0.346,-1.283,1.393
-0.395,-1.357,1.365
-0.411,-1.389,1.355
-0.367,-1.414,1.403
-0.362,-1.398,1.397
-0.352,-1.345,1.332
-0.341,-1.307,1.23
-0.281,-1.234,1.213
-0.24,-1.192,1.208
-0.17,-1.176,1.181
-0.146,-1.154,1.161
-0.143,-1.152,1.111
-0.119,-1.136,1.137
-0.003,-1.032,1.199
0.078,-0.995,1.402
0.017,-0.858,1.2
-0.057,-0.828,1.092
0.011,-0.942,1.082
0.075,-0.959,1.075
0.087,-0.962,1.084
0.091,-0.952,1.072
0.07,-0.946,1.057
0.066,-0.935,1.071
0.089,-0.93,1.095
0.108,-0.899,1.102
0.124,-0.875,1.133
0.19,-0.905,1.142
0.209,-0.875,1.141
0.227,-0.849,1.13
0.239,-0.764,1.123
0.252,-0.637,1.126
0.292,-0.593,1.143
0.324,-0.538,1.141
0.323,-0.482,1.126
0.349,-0.448,1.09
0.33,-0.408,1.055
0.31,-0.414,0.951
0.406,-0.385,1.183
0.418,-0.11,1.081
0.377,-0.014,0.871
0.418,-0.166,0.881
0.471,-0.153,1.067
0.569,-0.076,1.166
0.504,-0.052,1.103
0.448,-0.061,0.966
0.372,-0.055,0.935
0.338,-0.079,0.885
0.322,-0.074,0.818
0.32,-0.068,0.786
0.317,-0.049,0.77
0.306,-0.027,0.782
0.305,0.034,0.785
0.304,0.076,0.774
0.331,0.073,0.77
0.366,0.126,0.83
0.448,0.158,0.906
0.535,0.24,0.95
0.55,0.32,1.025
0.577,0.441,1.056
0.569,0.573,1.025
0.631,0.575,1.063
0.696,0.595,1.203
0.728,0.648,1.179
0.633,0.598,1.126
0.608,0.46,1.035
0.556,0.544,0.979
0.521,0.729,0.945
0.558,0.772,0.978
0.644,0.746,0.984
0.647,0.775,0.962
0.614,0.837,0.915
0.616,0.75,0.83
0.593,0.871,0.835
0.598,0.896,0.823
0.575,0.977,0.788
0.594,0.936,0.832
0.566,1.122,0.798
0.582,1.104,0.806
0.663,1.135,0.815
0.747,1.22,0.868
0.724,1.21,0.869
0.667,1.309,0.824
0.619,1.303,0.828
0.619,1.37,0.866
0.611,1.412,0.856
0.605,1.57,0.839
0.601,1.582,0.746
0.576,1.452,0.708
0.593,1.465,0.763
0.605,1.504,0.786
0.636,1.601,0.775
0.65,1.578,0.744
0.601,1.583,0.644
0.574,1.586,0.549
0.582,1.571,0.479
0.61,1.527,0.441
0.621,1.51,0.405
0.621,1.518,0.398
0.617,1.459,0.421
0.618,1.404,0.471
0.657,1.299,0.534
0.694,1.226,0.696
0.793,1.19,0.77
0.829,1.223,0.866
0.828,1.253,0.856
0.806,1.281,0.754
0.741,1.276,0.675
0.734,1.205,0.65
0.739,1.159,0.618
0.74,1.101,0.614
0.717,1.034,0.599
0.7,0.995,0.567
0.738,0.923,0.59
0.8,0.757,0.763
0.871,0.758,0.816
0.846,0.692,0.84
0.835,0.697,0.88
0.863,0.645,0.971
0.867,0.618,1.023
0.859,0.568,1.044
0.846,0.523,1.037
0.834,0.478,1.043
0.807,0.433,1.038
0.802,0.479,1.066
0.815,0.432,1.071
0.807,0.533,1.078
0.818,0.533,1.118
0.822,0.46,1.112
0.778,0.433,1.083
0.754,0.408,1.084
0.761,0.426,1.091
0.776,0.425,1.097
0.79,0.414,1.118
0.794,0.384,1.113
0.279,0.039,0.618
-0.691,-1.52,-1.695
-0.179,-0.737,-0.918
0.911,0.354,1.561
1.602,0.431,1.973
1.117,0.463,1.855
0.907,0.385,1.785
0.782,0.343,1.684
0.815,0.485,1.627
0.866,0.35,1.205
0.651,-0.509,0.868
0.498,-0.762,0.424
0.104,-1.185,0.207
0.556,-0.066,1.042
0.637,0.242,1.316
1.05,0.794,1.635
0.917,0.436,1.299
0.617,-0.23,1.182
0.534,-0.681,0.936
0.489,-0.649,0.918
0.449,-0.715,0.862
0.325,-1.438,0.562
0.077,-1.576,0.607
-0.101,-2.069,0.565
-0.21,-0.941,0.894
0.046,-0.381,1.116
0.392,-0.156,1.205
0.598,-0.133,1.258
0.635,-0.242,1.288
0.574,-0.379,1.325
0.469,-0.479,1.342
0.369,-0.664,1.315
0.336,-0.927,1.301
0.226,-1.004,1.276
0.173,-1.098,1.257
0.168,-1.167,1.271
0.144,-1.197,1.267
0.118,-1.285,1.258
0.106,-1.344,1.25
0.054,-1.349,1.244
0.03,-1.346,1.244
0.022,-1.374,1.213
0.01,-1.341,1.219
-0.056,-1.36,1.121
-0.071,-1.423,1.184
-0.035,-1.385,1.208
-0.059,-1.354,1.184
-0.11,-1.369,1.031
-0.164,-1.345,0.985
-0.129,-1.339,0.974
-0.108,-1.345,0.989
-0.12,-1.344,0.973
-0.163,-1.33,0.935
-0.164,-1.306,0.938
-0.163,-1.298,0.951
-0.163,-1.269,0.965
-0.173,-1.269,0.96
-0.142,-1.188,0.983
-0.167,-1.095,0.917
-0.099,-1.219,0.991
-0.107,-1.228,0.961
-0.146,-1.193,0.901
-0.171,-1.193,0.856
-0.155,-1.212,0.844
-0.135,-1.182,0.831
-0.108,-1.025,0.88
-0.078,-1.121,0.917
-0.104,-1.122,0.9
-0.107,-1.18,0.864
-0.096,-1.165,0.881
-0.054,-1.158,0.901
-0.039,-1.149,0.925
-0.001,-1.121,0.948
0.032,-1.097,0.987
0.037,-1.085,1.015
0.056,-1.087,1.037
0.052,-1.106,1.026
0.046,-1.062,1.017
0.093,-1.084,1.02
0.119,-1.091,1.029
0.091,-1.052,0.991
0.101,-0.942,0.958
0.136,-0.963,0.954
0.154,-0.895,0.94
0.158,-0.805,0.962
0.186,-0.764,0.961
0.178,-0.697,0.946
0.174,-0.665,0.897
0.177,-0.67,0.869
0.195,-0.674,0.858
0.203,-0.671,0.86
0.242,-0.665,0.912
0.282,-0.654,0.936
0.291,-0.631,0.973
0.308,-0.586,0.977
0.307,-0.508,0.975
0.366,-0.494,0.998
0.405,-0.413,0.996
0.422,-0.33,1.006
0.467,-0.3,1.017
0.486,-0.233,1.018
0.493,-0.157,1.028
0.508,-0.121,1.016
0.531,-0.063,1.01
0.553,-0.025,1.019
0.577,0.065,1.004
0.586,0.083,0.972
0.605,0.109,0.964
0.633,0.166,0.958
0.643,0.156,0.932
0.657,0.17,0.925
0.676,0.237,0.912
0.691,0.266,0.935
0.715,0.336,0.949
0.719,0.404,0.957
0.724,0.428,0.946
0.734,0.479,0.934
0.764,0.502,0.939
0.776,0.55,0.923
0.774,0.582,0.891
0.781,0.617,0.887
0.787,0.651,0.882
0.793,0.679,0.88
0.801,0.746,0.878
0.808,0.761,0.875
0.81,0.771,0.853
0.803,0.8,0.84
0.805,0.835,0.821
0.813,0.916,0.814
0.821,0.963,0.81
0.834,0.989,0.81
0.834,1.039,0.806
0.832,1.061,0.808
0.823,1.104,0.813
0.821,1.127,0.815
0.812,1.173,0.814
0.808,1.214,0.815
0.793,1.238,0.81
0.795,1.272,0.81
0.797,1.298,0.802
0.809,1.371,0.798
0.815,1.433,0.795
0.82,1.459,0.79
0.821,1.513,0.788
0.813,1.537,0.787
0.784,1.62,0.756
0.787,1.67,0.801
0.831,1.641,0.809
0.789,1.602,0.688
0.804,1.589,0.692
0.804,1.72,0.736
0.82,1.757,0.767
0.824,1.702,0.747
0.814,1.695,0.726
0.799,1.755,0.716
0.797,1.748,0.683
0.797,1.714,0.615
0.783,1.672,0.584
0.777,1.652,0.538
0.773,1.649,0.52
0.776,1.636,0.495
0.772,1.611,0.48
0.775,1.607,0.481
0.778,1.545,0.463
0.786,1.506,0.453
0.794,1.446,0.465
0.825,1.424,0.501
0.843,1.408,0.513
0.854,1.393,0.543
0.875,1.36,0.562
0.884,1.325,0.598
0.897,1.307,0.632
0.924,1.279,0.647
0.935,1.247,0.703
0.957,1.23,0.715
0.958,1.19,0.739
0.989,1.174,0.771
1.003,1.141,0.793
1.01,1.098,0.833
1.026,1.072,0.859
1.045,1.015,0.872
1.054,1.001,0.893
1.061,0.972,0.902
1.069,0.916,0.937
1.069,0.887,0.958
1.048,0.893,0.976
1.044,0.881,0.979
1.047,0.807,0.982
1.047,0.757,1.001
1.037,0.746,0.991
1.085,0.661,1.07
1.035,0.622,1.072
0.996,0.545,1.054
0.995,0.499,1.033
0.988,0.417,1.018
0.98,0.324,0.982
0.945,0.277,0.968
0.919,0.182,0.946
0.905,0.152,0.933
0.869,0.057,0.912
0.862,-0.064,0.927
0.837,-0.122,0.887
0.765,-0.227,0.845
0.748,-0.368,0.846
0.743,-0.424,0.865
0.74,-0.589,0.886
0.733,-0.7,0.928
0.687,-0.897,0.935
0.48,-1.203,0.786
0.474,-1.1,0.857
0.441,-1.331,0.829
0.395,-1.425,0.76
0.295,-1.47,0.647
0.22,-1.546,0.611
0.226,-1.564,0.617
0.235,-1.543,0.773
0.271,-1.418,0.945
0.264,-1.314,1.177
0.212,-1.304,1.263
0.114,-1.354,1.231
0.119,-1.429,1.202
0.162,-1.633,1.162
0.134,-1.765,0.995
0.093,-1.83,0.939
0.026,-1.965,0.899
-0.025,-2.017,0.895
-0.068,-2.036,0.922
-0.098,-2.033,0.973
-0.116,-1.884,1.03
-0.135,-1.945,1.059
-0.157,-1.877,1.074
-0.173,-1.85,1.042
-0.211,-1.8,0.996
-0.224,-1.773,0.91
-0.231,-1.745,0.848
-0.221,-1.706,0.818
-0.217,-1.663,0.78
-0.209,-1.65,0.742
-0.203,-1.61,0.738
-0.182,-1.567,0.761
-0.181,-1.547,0.753
-0.168,-1.541,0.783
-0.172,-1.519,0.793
-0.176,-1.513,0.763
-0.155,-1.499,0.754
-0.143,-1.483,0.719
-0.124,-1.478,0.714
-0.052,-1.396,0.8
-0.136,-1.484,0.803
-0.193,-1.225,0.773
-0.036,-1.402,0.799
-0.026,-1.56,0.734
-0.034,-1.484,0.806
-0.003,-1.403,0.981
0.018,-1.327,0.913
0.041,-1.314,0.935
0.09,-1.309,0.985
0.11,-1.286,0.932
0.078,-1.293,0.896
0.14,-1.294,0.9
0.161,-1.283,0.91
0.2,-1.277,0.924
0.213,-1.234,0.951
0.222,-1.217,0.95
0.21,-1.093,0.931
0.245,-1.075,0.985
0.251,-0.975,0.954
0.249,-0.959,0.929
0.259,-0.907,0.868
0.252,-0.858,0.857
0.289,-0.792,0.877
0.291,-0.762,0.88
0.288,-0.742,0.88
0.292,-0.728,0.885
0.308,-0.712,0.891
0.334,-0.672,0.893
0.345,-0.615,0.89
0.362,-0.569,0.897
0.408,-0.538,0.907
0.429,-0.474,0.918
0.438,-0.416,0.923
0.452,-0.379,0.953
0.458,-0.351,0.979
0.479,-0.295,0.987
0.491,-0.23,1.016
0.502,-0.198,0.997
0.532,-0.102,1.018
0.562,-0.077,1.061
0.603,-0.052,1.065
0.596,0.048,1.055
0.586,0.067,1.02
0.649,0.047,1.055
0.668,0.219,1.06
0.65,0.239,1.046
0.665,0.265,1.053
0.705,0.288,1.045
0.73,0.363,1.075
0.782,0.406,1.1
0.79,0.432,1.099
0.782,0.481,1.089
0.783,0.528,1.077
0.796,0.535,1.046
0.81,0.559,1.028
0.813,0.59,0.983
0.834,0.633,0.983
0.857,0.648,1.033
0.876,0.679,1.04
0.872,0.769,1.045
0.87,0.807,1.029
0.871,0.858,1.011
0.882,0.908,0.948
0.898,0.982,0.931
0.905,1.023,0.906
0.924,1.089,0.9
0.931,1.162,0.901
0.945,1.201,0.908
0.953,1.286,0.925
0.955,1.329,0.938
0.942,1.409,0.931
0.921,1.541,0.927
1.013,1.468,0.895
0.956,1.669,0.918
0.937,1.636,0.854
0.954,1.689,0.853
0.983,1.662,0.911
0.949,1.713,0.914
0.918,1.789,0.895
0.902,1.8,0.859
0.887,1.86,0.828
0.877,1.906,0.774
0.872,1.943,0.744
0.873,1.954,0.69
0.865,1.952,0.63
0.849,1.942,0.609
0.841,1.938,0.577
0.83,1.926,0.566
0.829,1.889,0.565
0.816,1.89,0.558
0.813,1.851,0.534
0.821,1.812,0.529
0.841,1.711,0.539
0.838,1.717,0.542
0.868,1.627,0.602
0.893,1.562,0.668
0.914,1.545,0.702
0.925,1.492,0.707
0.933,1.421,0.699
0.956,1.387,0.697
0.973,1.319,0.711
0.999,1.284,0.734
1.016,1.213,0.744
1.024,1.175,0.762
1.026,1.132,0.777
1.019,1.087,0.767
1.037,1.009,0.78
1.052,0.968,0.803
1.044,0.939,0.801
1.062,0.865,0.829
1.079,0.824,0.904
1.093,0.828,0.93
1.077,0.816,0.965
1.059,0.789,0.982
1.07,0.707,1.014
1.076,0.644,1.07
1.064,0.585,1.112
1.048,0.519,1.089
1.024,0.46,1.092
1.027,0.407,1.105
0.995,0.371,1.092
0.981,0.305,1.084
0.979,0.281,1.099
0.978,0.235,1.109
0.976,0.211,1.128
0.958,0.17,1.137
0.947,0.129,1.14
0.919,0.1,1.141
0.905,0.023,1.116
0.885,-0.022,1.103
0.831,-0.128,1.038
0.805,-0.207,0.997
0.791,-0.261,0.984
0.752,-0.361,0.944
0.733,-0.449,0.901
0.662,-0.554,0.798
0.62,-0.87,0.765
0.567,-0.909,0.729
0.575,-0.836,0.784
0.561,-0.992,0.736
0.518,-1.063,0.668
0.481,-1.231,0.62
0.47,-1.352,0.553
0.458,-1.549,0.561
0.467,-1.69,0.675
0.518,-1.704,0.973
0.487,-1.613,1.17
0.412,-1.606,1.392
0.224,-1.643,1.413
0.146,-1.619,1.363
0.214,-1.645,1.357
0.241,-1.838,1.25
0.187,-1.904,0.96
0.1,-1.937,0.861
0.074,-1.884,0.758
0.04,-1.878,0.743
0.024,-1.876,0.754
0.02,-1.857,0.789
0.016,-1.83,0.868
0.029,-1.757,0.907
0.022,-1.725,0.946
-0.013,-1.717,0.935
-0.024,-1.692,0.926
-0.011,-1.666,0.924
-0.03,-1.663,0.89
-0.035,-1.632,0.883
-0.029,-1.584,0.861
-0.021,-1.564,0.861
-0.014,-1.545,0.855
-0.006,-1.54,0.862
-0.005,-1.545,0.876
0.003,-1.541,0.891
0.012,-1.539,0.921
0.001,-1.551,0.876
0.001,-1.578,0.863
0.014,-1.586,0.848
0.037,-1.545,0.946
0.064,-1.65,0.923
-0.033,-1.484,0.823
0.041,-1.389,0.804
0.152,-1.62,0.818
0.131,-1.578,0.812
0.118,-1.509,0.835
0.122,-1.449,0.89
0.162,-1.415,0.911
0.266,-1.377,1.037
0.183,-1.434,0.801
0.156,-1.429,0.786
0.199,-1.388,0.759
0.217,-1.378,0.764
0.244,-1.348,0.785
0.25,-1.303,0.82
0.252,-1.281,0.854
0.248,-1.191,0.862
0.258,-1.181,0.85
0.279,-1.184,0.814
0.301,-1.124,0.812
0.323,-1.073,0.838
0.382,-1.028,0.994
0.403,-0.969,0.893
0.409,-0.914,0.932
0.462,-0.878,0.953
0.475,-0.842,0.958
0.477,-0.812,0.972
0.496,-0.739,0.978
0.513,-0.7,0.982
0.538,-0.634,0.975
0.547,-0.55,0.936
0.56,-0.501,0.944
0.6,-0.416,0.918
0.64,-0.392,0.974
0.672,-0.266,0.994
0.659,-0.177,1.003
0.621,-0.165,0.837
0.621,-0.112,0.825
0.703,-0.13,0.898
0.781,-0.094,1.006
0.803,-0.025,1.039
0.779,0.001,1.021
0.774,0.032,1.018
0.799,0.091,1.021
0.838,0.141,1.007
0.875,0.219,1.008
0.909,0.279,1.032
0.975,0.318,1.05
1.011,0.427,1.08
1.014,0.496,1.081
1.031,0.621,1.083
1.049,0.695,1.107
1.098,0.706,1.135
1.118,0.731,1.182
1.117,0.757,1.182
1.104,0.802,1.17
1.088,0.821,1.126
1.074,0.861,1.098
1.069,0.883,1.041
1.084,0.916,1.03
1.086,0.971,0.972
1.078,1,0.933
1.09,1.055,0.92
1.093,1.083,0.898
1.088,1.164,0.887
1.09,1.264,0.873
1.097,1.324,0.872
1.118,1.438,0.875
1.129,1.502,0.896
1.125,1.606,0.892
1.126,1.653,0.895
1.129,1.675,0.915
1.118,1.714,0.921
1.105,1.866,0.94
1.092,1.806,0.951
1.085,1.874,0.945
1.072,1.907,0.945
1.055,1.981,0.924
1.051,2.016,0.893
1.051,2.067,0.865
1.043,2.116,0.792
1.027,2.13,0.626
1.005,2.158,0.687
0.985,2.175,0.597
0.943,2.187,0.557
0.928,2.138,0.48
0.889,2.103,0.457
0.872,2.088,0.382
0.865,2.066,0.311
0.864,2.014,0.269
0.869,1.973,0.231
0.867,1.886,0.219
0.873,1.828,0.243
0.873,1.81,0.253
0.89,1.742,0.267
0.907,1.709,0.319
0.954,1.621,0.346
0.965,1.58,0.385
1.004,1.537,0.451
1.054,1.445,0.5
1.06,1.299,0.56
1.081,1.275,0.57
1.096,1.244,0.668
1.132,1.252,0.665
1.091,1.288,0.642
1.113,1.256,0.61
1.184,1.098,0.617
1.192,1.118,0.651
1.176,1.058,0.64
1.201,1.007,0.682
1.204,1.003,0.742
1.2,0.983,0.766
1.192,0.935,0.79
1.179,0.907,0.793
1.182,0.864,0.802
1.179,0.868,0.752
1.15,0.723,0.702
1.219,0.575,1.117
1.304,0.578,0.834
1.088,0.768,0.869
1.068,0.709,0.806
1.099,0.604,0.776
1.125,0.607,0.783
1.193,0.507,0.784
1.197,0.436,0.823
1.182,0.313,0.868
1.165,0.227,0.97
1.118,0.186,1.013
1.062,0.096,1.042
1.043,0.039,1.035
1.028,-0.088,1.022
1.022,-0.263,0.986
1.029,-0.351,1.015
1.016,-0.491,1.057
0.984,-0.646,1.073
0.934,-0.673,1.132
0.887,-0.973,1.127
0.854,-1.119,1.166
0.835,-1.289,1.116
0.791,-1.454,1.009
0.786,-1.574,1.014
0.741,-1.742,0.983
0.602,-1.954,0.919
0.553,-2.077,0.919
0.525,-2.181,0.99
0.586,-2.096,1.361
0.614,-1.97,1.88
0.428,-1.681,2.028
0.308,-1.652,1.99
0.207,-1.763,1.59
0.266,-1.8,1.44
0.29,-1.82,1.123
0.357,-1.705,1.092
0.371,-1.933,1.047
0.257,-2.005,1.022
0.059,-2.039,1.001
0.005,-2.081,0.993
-0.046,-2.072,0.985
-0.091,-1.992,0.932
-0.101,-1.939,0.878
-0.109,-1.821,0.845
-0.121,-1.718,0.77
-0.127,-1.669,0.699
-0.14,-1.57,0.656
-0.16,-1.511,0.58
-0.155,-1.492,0.531
-0.131,-1.478,0.511
-0.115,-1.48,0.519
-0.092,-1.481,0.562
-0.056,-1.482,0.601
-0.042,-1.511,0.658
-0.02,-1.524,0.706
0,-1.548,0.719
0.008,-1.585,0.729
0.028,-1.602,0.711
0.066,-1.623,0.708
0.08,-1.63,0.698
0.147,-1.54,0.817
0.109,-1.79,0.774
0.064,-1.444,0.82
0.22,-1.421,0.968
0.377,-1.695,0.979
0.338,-1.669,1.039
0.306,-1.666,1.064
0.308,-1.577,1.104
0.312,-1.548,1.035
0.371,-1.504,1.056
0.405,-1.426,1.06
0.5,-1.395,0.928
0.544,-1.338,1.218
0.761,-1.083,1.544
0.326,-1.262,1.058
0.37,-1.043,1.055
0.42,-1.067,0.931
0.516,-1.23,0.881
0.494,-1.133,0.782
0.386,-1.118,0.612
0.337,-1.043,0.546
0.308,-1.009,0.213
0.646,-1.198,0.56
0.71,-0.919,0.983
0.425,-0.705,0.867
0.387,-0.63,0.865
0.451,-0.737,0.792
0.564,-0.671,0.747
0.659,-0.522,0.75
0.703,-0.501,0.807
0.751,-0.478,0.824
0.758,-0.442,0.884
0.789,-0.391,0.934
0.782,-0.27,0.904
0.732,-0.218,0.873
0.86,-0.194,0.971
0.868,-0.137,0.983
0.877,-0.101,1.018
0.934,-0.051,1.124
0.927,0.012,1.095
0.915,0.021,1.083
0.945,0.069,1.125
0.925,0.078,0.976
0.972,0.264,0.988
1.072,0.176,1.136
1.023,0.127,1.088
1.005,0.2,1.058
1.034,0.233,1.079
1.043,0.354,1.05
1.06,0.389,1.043
1.148,0.465,1.1
1.168,0.499,1.146
1.153,0.666,1.151
1.143,0.787,1.176
1.191,0.774,1.202
1.218,0.875,1.199
1.292,0.76,1.323
1.258,1.016,1.286
1.239,1.048,1.24
1.223,1.108,1.235
1.232,1.112,1.219
1.249,1.106,1.211
1.245,1.17,1.202
1.242,1.201,1.196
1.19,1.407,1.171
1.235,1.464,1.276
1.225,1.504,1.213
1.196,1.575,1.133
1.203,1.613,1.129
1.174,1.693,1.065
1.129,1.725,1.063
1.125,1.77,1.106
1.105,1.81,1.116
1.079,1.903,1.116
1.083,1.922,1.102
1.068,1.976,1.074
1.064,2.046,1.01
1.058,2.071,0.969
1.059,2.151,0.923
1.066,2.154,0.899
1.035,2.158,0.873
1.006,2.197,0.803
0.984,2.229,0.776
0.985,2.204,0.726
0.977,2.193,0.702
0.956,2.146,0.634
0.952,2.12,0.564
0.952,2.033,0.54
0.945,1.98,0.497
0.956,1.864,0.511
0.96,1.739,0.53
0.949,1.675,0.573
0.98,1.545,0.614
0.996,1.49,0.689
0.999,1.44,0.711
1.033,1.326,0.762
1.03,1.291,0.745
1.052,1.186,0.749
1.068,1.137,0.768
1.076,1.083,0.765
1.105,0.98,0.833
1.135,0.945,0.752
1.009,0.995,0.751
1.095,0.799,0.904
1.202,0.744,0.942
1.186,0.484,1.021
1.091,0.697,0.933
0.966,0.813,0.869
1.055,0.694,0.903
1.113,0.616,0.911
1.106,0.556,0.832
1.112,0.521,0.832
1.065,0.454,0.828
1.04,0.383,0.855
1.018,0.346,0.892
0.997,0.28,0.908
0.995,0.247,0.952
0.991,0.187,0.974
0.994,0.108,1.017
0.993,0.064,1.04
0.984,0.008,1.077
0.966,-0.028,1.117
0.934,-0.096,1.098
0.927,-0.143,1.078
0.945,-0.253,1.145
0.929,-0.296,1.205
0.902,-0.293,1.272
0.852,-0.289,1.278
0.834,-0.284,1.248
0.818,-0.305,1.181
0.791,-0.426,1.133
0.771,-0.45,1.06
0.737,-0.527,1.039
0.715,-0.599,1.077
0.691,-0.745,1.046
0.637,-0.802,1.015
0.599,-0.921,0.975
0.583,-0.953,1
0.57,-1.055,0.993
0.499,-1.133,0.803
0.407,-1.117,0.854
0.416,-1.203,0.809
0.373,-1.32,0.681
0.253,-1.384,0.468
0.163,-1.506,0.396
0.152,-1.561,0.278
0.208,-1.684,0.297
0.265,-1.53,0.642
0.35,-1.343,1.248
0.227,-1.009,1.454
0.148,-0.757,1.641
0.072,-0.907,1.552
0.071,-0.971,1.266
0.151,-1.034,0.983
0.201,-1.123,0.808
0.28,-1.167,0.858
0.202,-1.135,0.574
0.148,-1.535,0.637
0.144,-1.629,0.839
-0.023,-1.607,0.768
-0.117,-1.663,0.75
-0.143,-1.793,0.692
-0.168,-1.815,0.687
-0.144,-1.808,0.687
-0.153,-1.794,0.658
-0.166,-1.765,0.701
-0.163,-1.703,0.729
-0.163,-1.638,0.784
-0.16,-1.619,0.806
-0.136,-1.597,0.805
-0.12,-1.564,0.8
-0.102,-1.542,0.795
-0.06,-1.518,0.835
-0.041,-1.5,0.893
-0.038,-1.493,0.904
-0.033,-1.479,0.91
-0.013,-1.449,0.951
0.004,-1.429,0.923
0.037,-1.512,0.938
-0.001,-0.956,0.924
0.058,-0.97,1.021
0.174,-1.349,1.017
0.147,-1.356,1.017
0.095,-1.253,1.024
0.087,-1.135,0.945
0.1,-1.148,0.932
0.151,-1.114,1.148
0.26,-1.078,1.079
0.16,-1.116,1.005
0.16,-1.161,0.964
0.196,-1.187,0.939
0.235,-1.26,0.918
0.26,-1.273,0.998
0.321,-1.193,0.998
0.529,-1.089,1.629
0.214,-1.093,1.159
0.284,-1.258,1.162
0.313,-1.33,1.004
0.305,-1.319,0.94
0.311,-1.273,0.862
0.309,-1.221,0.826
0.304,-1.063,0.813
0.31,-0.893,0.8
0.355,-0.834,0.855
0.337,-0.726,0.806
0.279,-0.505,0.684
0.487,-0.676,0.865
0.478,-0.603,0.847
0.46,-0.556,0.975
0.422,-0.488,0.939
0.404,-0.488,0.902
0.476,-0.474,0.939
0.478,-0.379,0.9
0.475,-0.333,0.873
0.541,-0.302,0.881
0.489,-0.186,0.711
0.554,-0.12,0.867
0.634,-0.111,0.907
0.672,-0.072,1.066
0.659,-0.074,1.11
0.664,-0.073,1.112
0.685,-0.076,1.077
0.723,-0.071,1.051
0.763,-0.017,1.034
0.771,0.011,1.039
0.81,0.048,1.072
0.813,0.151,1.097
0.813,0.169,1.059
0.811,0.238,1.042
0.815,0.167,0.933
0.925,0.22,1.032
0.922,0.193,1.023
0.924,0.193,1.036
0.897,0.3,1.015
0.901,0.322,0.984
0.937,0.337,0.992
0.959,0.411,0.994
0.954,0.495,0.979
0.986,0.566,0.995
0.977,0.676,0.97
1.043,0.758,0.995
1.076,0.708,1.046
1.02,0.834,1.034
0.996,0.951,1.068
0.993,0.967,1.068
0.969,1.061,1.044
1.014,0.991,1.126
1.025,0.985,1.072
0.987,1.082,1.056
0.976,1.129,1.017
0.986,1.176,1.035
0.988,1.215,1.05
0.97,1.255,1.046
0.971,1.336,1.053
0.979,1.374,1.043
0.96,1.458,1.039
0.961,1.617,1.055
0.956,1.552,1.057
0.945,1.636,1.045
0.942,1.672,1.053
0.931,1.732,1.042
0.928,1.75,1.004
0.927,1.785,0.989
0.935,1.795,0.968
0.935,1.836,0.963
0.934,1.875,0.934
0.916,1.873,0.876
0.91,1.94,0.885
0.909,1.997,0.904
0.885,1.992,0.894
0.878,1.991,0.817
0.88,1.969,0.755
0.868,1.944,0.729
0.857,1.915,0.651
0.859,1.819,0.637
0.875,1.763,0.655
0.842,1.767,0.647
0.86,1.713,0.664
0.842,1.666,0.606
0.846,1.631,0.61
0.863,1.57,0.622
0.881,1.541,0.635
0.888,1.486,0.646
0.887,1.454,0.67
0.92,1.354,0.692
0.93,1.293,0.675
0.838,1.212,0.634
0.946,1.044,0.784
0.971,0.972,0.903
0.926,0.996,0.936
0.845,1.03,0.866
0.899,0.879,0.916
0.912,0.801,0.918
0.947,0.766,0.937
0.961,0.696,0.947
0.92,0.669,0.893
0.871,0.606,0.869
0.871,0.56,0.852
0.877,0.48,0.849
0.881,0.402,0.838
0.882,0.361,0.813
0.849,0.284,0.795
0.834,0.216,0.782
0.767,-0.293,1.054
0.766,-0.375,1.087
0.756,-0.407,1.133
0.716,-0.392,0.995
0.71,-0.453,0.906
0.714,-0.475,0.874
0.715,-0.56,0.803
0.683,-0.811,0.615
0.58,-0.783,0.508
0.617,-0.917,0.691
0.643,-0.962,0.745
0.598,-1.082,0.794
0.583,-1.216,0.9
0.547,-1.263,0.958
0.384,-1.333,1.099
0.455,-1.367,1.26
0.421,-1.42,1.336
0.408,-1.344,1.464
0.37,-1.326,1.606
0.377,-1.161,1.532
0.374,-1.296,1.357
0.313,-1.261,1.198
0.283,-1.157,1.128
0.274,-1.004,1.012
0.27,-0.934,0.986
0.287,-0.808,0.979
0.281,-0.775,0.882
0.256,-0.779,0.85
0.244,-0.827,0.786
0.217,-0.895,0.722
0.182,-0.996,0.71
0.174,-1.036,0.736
0.136,-1.101,0.739
0.095,-1.164,0.758
0.085,-1.2,0.798
0.062,-1.286,0.814
0.05,-1.37,0.836
0.035,-1.402,0.858
0.025,-1.438,0.877
0.023,-1.45,0.918
0.011,-1.462,0.928
0.009,-1.484,0.938
0.006,-1.484,0.935
-0.006,-1.49,0.926
-0.008,-1.508,0.917
-0.005,-1.518,0.892
-0.007,-1.527,0.888
0.029,-1.633,0.858
0.023,-1.462,0.999
0.029,-1.143,0.998
0.089,-1.584,1.022
0.111,-1.45,1.295
0.102,-1.247,1.292
-0.023,-1.266,0.94
0.015,-1.305,0.967
0.1,-1.183,1.022
0.156,-1.118,1.017
0.161,-1.178,0.994
0.163,-1.159,1.107
0.218,-0.975,1.13
0.216,-1.15,1.071
0.194,-1.121,1.083
0.209,-1.09,1.117
0.228,-1.103,1.154
0.254,-1.072,1.165
0.252,-1.07,1.165
0.257,-1.07,1.186
0.27,-1.051,1.192
0.277,-1.063,1.186
0.262,-1.067,1.149
0.229,-1.077,1.127
0.261,-1.095,1.118
0.2,-1.019,1.073
0.206,-0.994,1.031
0.21,-0.971,0.938
0.195,-0.917,0.892
0.196,-0.853,0.813
0.205,-0.811,0.749
0.217,-0.72,0.736
0.238,-0.649,0.755
0.202,-0.558,0.565
0.238,-0.507,0.62
0.317,-0.398,0.731
0.32,-0.463,0.779
0.331,-0.465,0.905
0.341,-0.492,0.989
0.272,-0.55,0.981
0.243,-0.55,0.917
0.269,-0.511,0.929
0.327,-0.419,0.925
0.356,-0.459,0.902
0.39,-0.468,0.883
0.387,-0.426,0.818
0.404,-0.381,0.887
0.442,-0.269,0.923
0.447,-0.158,0.97
0.467,-0.117,0.988
0.619,-0.065,1.067
0.518,-0.029,1.07
0.496,0.065,1.055
0.516,0.125,1.034
0.571,0.139,1.032
0.586,0.146,1.029
0.582,0.151,1.002
0.528,0.239,0.965
0.536,0.212,0.841
0.597,0.269,0.875
0.641,0.241,0.907
0.635,0.26,0.907
0.652,0.314,0.911
0.639,0.358,0.856
0.631,0.429,0.842
0.668,0.391,0.905
0.688,0.437,0.927
0.638,0.638,0.864
0.761,0.516,0.984
0.805,0.524,0.929
0.772,0.637,0.956
0.83,0.705,1.027
0.868,0.713,1.206
0.853,0.817,1.238
0.856,0.882,1.283
0.879,0.904,1.308
0.886,1.001,1.309
0.914,0.987,1.331
0.921,1.032,1.318
0.931,1.072,1.331
0.935,1.17,1.322
0.94,1.219,1.346
0.963,1.218,1.342
0.904,1.353,1.313
0.904,1.393,1.299
0.913,1.439,1.283
0.912,1.537,1.26
0.897,1.589,1.227
0.866,1.708,1.185
0.872,1.751,1.169
0.888,1.815,1.159
0.886,1.874,1.135
0.871,1.915,1.124
0.87,1.904,1.12
0.862,1.915,1.097
0.829,1.97,1.078
0.821,2.018,1.07
0.84,1.957,1.051
0.826,1.955,1.03
0.806,1.975,0.996
0.773,1.948,0.953
0.779,1.78,0.903
0.788,1.848,0.882
0.767,1.81,0.739
0.742,1.795,0.659
0.789,1.701,0.671
0.779,1.661,0.612
0.751,1.628,0.6
0.757,1.564,0.608
0.771,1.52,0.619
0.774,1.448,0.639
0.793,1.421,0.677
0.826,1.368,0.697
0.842,1.339,0.739
0.865,1.289,0.747
0.896,1.2,0.783
0.89,1.203,0.816
0.865,1.083,0.73
0.94,1.001,0.881
0.937,0.931,0.856
0.976,0.769,0.996
0.95,0.778,1.006
0.841,0.815,0.955
0.913,0.657,1.06
0.891,0.627,0.987
0.89,0.546,0.969
0.9,0.496,0.942
0.865,0.44,0.919
0.842,0.417,0.893
0.819,0.376,0.894
0.813,0.361,0.9
0.799,0.355,0.9
0.792,0.343,0.898
0.778,0.319,0.885
0.739,0.275,0.871
0.722,0.233,0.831
0.72,0.194,0.823
0.724,0.135,0.84
0.716,0.121,0.899
0.694,0.104,0.932
0.681,0.092,0.993
0.675,0.033,1.018
0.685,-0.047,1.071
0.713,-0.092,1.112
0.733,-0.18,1.126
0.735,-0.286,1.14
0.701,-0.335,1.155
0.677,-0.406,1.201
0.674,-0.446,1.223
0.622,-0.531,1.152
0.564,-0.549,1.053
0.536,-0.578,0.958
0.509,-0.607,0.903
0.511,-0.627,0.805
0.469,-0.747,0.703
0.473,-0.838,0.63
0.526,-0.901,0.717
0.464,-1.015,0.718
0.441,-0.935,0.837
0.416,-1.048,0.759
0.415,-1.094,0.748
0.442,-0.965,0.905
0.507,-0.861,1.133
0.477,-0.736,1.136
0.47,-0.584,1.292
0.474,-0.587,1.153
0.447,-0.627,1.172
0.434,-0.664,1.02
0.427,-0.805,0.956
0.423,-0.848,0.899
0.41,-0.832,0.912
0.353,-0.786,0.923
0.348,-0.852,0.959
0.348,-0.883,0.977
0.339,-0.996,0.943
0.312,-1.179,0.813
0.264,-1.283,0.712
0.229,-1.468,0.689
0.211,-1.535,0.687
0.177,-1.628,0.704
0.145,-1.692,0.755
0.134,-1.705,0.817
0.117,-1.713,0.841
0.112,-1.718,0.891
0.105,-1.714,0.906
0.108,-1.69,0.91
0.111,-1.672,0.895
0.125,-1.625,0.895
0.135,-1.539,0.903
0.142,-1.494,0.91
0.143,-1.421,0.919
0.122,-1.45,0.91
0.174,-1.413,0.936
0.144,-1.044,0.925
0.105,-1.307,0.995
0.236,-1.591,1.05
0.197,-1.434,1.024
0.097,-1.403,0.993
0.088,-1.377,0.977
0.114,-1.375,1.034
0.153,-1.275,1.007
0.111,-1.244,0.8
0.145,-1.218,0.794
0.246,-1.158,0.81
0.283,-1.152,0.889
0.445,-0.93,1.297
0.426,-0.91,1.09
0.222,-0.863,1.118
0.357,-1.164,1.141
0.326,-1.139,1.075
0.336,-1.176,1.095
0.328,-1.244,1.119
0.292,-1.239,1.129
0.278,-1.194,1.127
0.279,-1.12,1.096
0.279,-1.082,1.076
0.288,-1.018,1.017
0.292,-0.994,0.944
0.303,-0.945,0.909
0.3,-0.874,0.851
0.296,-0.834,0.825
0.305,-0.762,0.822
0.305,-0.731,0.813
0.327,-0.659,0.816
0.331,-0.559,0.785
0.459,-0.605,1.003
0.435,-0.604,0.996
0.412,-0.544,1.084
0.392,-0.552,1.097
0.351,-0.542,1.063
0.344,-0.426,1.045
0.394,-0.403,0.974
0.437,-0.342,0.947
0.488,-0.298,1.056
0.551,-0.199,1.13
0.55,-0.233,1.172
0.525,-0.242,1.126
0.506,-0.185,1.073
0.524,-0.02,1.045
0.595,-0.063,1.062
0.569,0.027,0.965
0.587,0.031,1.013
0.623,0.049,1.036
0.614,0.109,1.01
0.609,0.145,0.986
0.62,0.221,0.95
0.654,0.254,0.937
0.629,0.387,0.928
0.626,0.405,0.825
0.776,0.383,0.909
0.822,0.383,1.052
0.717,0.423,1.038
0.705,0.478,1.037
0.727,0.48,1.022
0.773,0.488,1.003
0.792,0.508,0.993
0.802,0.562,0.988
0.677,0.86,0.868
0.843,0.532,0.902
0.856,0.551,0.895
0.776,0.784,0.82
0.893,0.805,0.932
0.903,0.774,1.018
0.839,0.792,1.05
0.794,0.875,1.04
0.786,0.87,1.08
0.792,0.938,1.069
0.738,1.106,0.964
0.856,1.177,0.999
0.931,0.981,1.021
0.802,1.175,0.939
0.816,1.185,1.009
0.853,1.18,1.03
0.799,1.288,1.031
0.791,1.328,1.059
0.806,1.341,1.083
0.796,1.471,1.056
0.765,1.412,1.042
0.765,1.456,1.011
0.763,1.456,0.994
0.627,1.485,0.935
0.748,1.535,0.923
0.766,1.564,0.916
0.77,1.605,0.936
0.767,1.63,0.967
0.757,1.658,0.986
0.759,1.643,1.006
0.77,1.569,1.014
0.776,1.547,1.028
0.795,1.532,1.047
0.812,1.532,1.066
0.769,1.547,1.008
0.804,1.52,1.037
0.826,1.481,1.031
0.783,1.485,0.971
0.794,1.449,0.959
0.827,1.427,0.97
0.824,1.396,0.989
0.823,1.377,1.003
0.813,1.346,0.995
0.812,1.328,0.967
0.815,1.281,0.946
0.835,1.167,0.93
0.889,1.159,0.954
0.771,1.101,0.868
0.936,1.056,1.007
0.813,1.088,0.936
0.825,1.053,1
0.903,0.954,1.049
0.868,1.055,1.002
0.934,0.941,1.019
0.954,0.875,1.054
0.956,0.871,1.08
0.956,0.847,1.12
0.953,0.825,1.219
0.959,0.744,1.229
0.944,0.718,1.214
0.905,0.689,1.176
0.901,0.61,1.116
0.902,0.569,1.09
0.896,0.513,1.052
0.887,0.486,1.014
0.86,0.433,0.997
0.847,0.385,0.976
0.843,0.362,0.975
0.842,0.294,0.977
0.83,0.274,0.96
0.805,0.232,0.956
0.794,0.181,0.912
0.82,0.144,0.911
0.852,0.094,0.957
0.843,0.084,1.016
0.8,0.063,1.035
0.782,0.057,1.025
0.761,0.012,1.001
0.757,-0.092,0.952
0.743,-0.146,0.926
0.707,-0.237,0.896
0.685,-0.288,0.895
0.633,-0.327,0.913
0.615,-0.342,0.962
0.596,-0.381,0.931
0.529,-0.485,0.862
0.527,-0.535,0.842
0.56,-0.558,0.862
0.517,-0.611,0.848
0.456,-0.679,0.762
0.447,-0.75,0.77
0.537,-0.737,0.936
0.545,-0.792,0.873
0.438,-0.816,0.731
0.55,-0.967,0.88
0.546,-1.045,0.872
0.417,-1.1,0.84
0.383,-1.11,0.892
0.341,-1.108,0.913
0.28,-1.092,0.917
0.258,-1.084,0.892
0.258,-1.094,0.877
0.259,-1.114,0.834
0.266,-1.124,0.825
0.276,-1.166,0.834
0.271,-1.208,0.866
0.259,-1.223,0.901
0.252,-1.274,0.961
0.244,-1.355,1.018
0.238,-1.392,1.05
0.228,-1.461,1.065
0.19,-1.486,1.023
0.172,-1.516,1
0.172,-1.53,0.953
0.169,-1.52,0.937
0.166,-1.484,0.948
0.146,-1.468,0.983
0.106,-1.456,1
0.068,-1.454,1.033
0.059,-1.459,1.052
0.053,-1.483,1.06
0.05,-1.506,1.061
0.036,-1.527,1.053
0.024,-1.57,1.051
0.013,-1.579,1.037
-0.006,-1.606,1.019
0.02,-1.472,0.981
0.05,-1.219,1.013
0.172,-1.497,1.057
0.177,-1.546,1.022
0.071,-1.464,0.945
0.047,-1.372,0.921
0.072,-1.359,0.915
0.116,-1.362,0.912
0.129,-1.315,0.907
0.131,-1.301,0.877
0.149,-1.288,0.896
0.151,-1.304,0.841
0.145,-1.306,0.831
0.177,-1.295,0.877
0.201,-1.277,0.967
0.192,-1.126,0.973
0.217,-1.232,0.96
0.258,-1.181,0.974
0.305,-1.157,1.085
0.341,-1.098,1.175
0.237,-1.085,1.079
0.239,-1.116,1.027
0.267,-1.105,0.954
0.292,-1.058,0.925
0.319,-0.97,0.846
0.359,-0.961,0.874
0.369,-0.926,0.865
0.364,-0.935,0.881
0.337,-0.895,0.871
0.338,-0.864,0.844
0.348,-0.851,0.806
0.361,-0.771,0.786
0.363,-0.694,0.734
0.378,-0.646,0.677
0.437,-0.521,0.705
0.465,-0.439,0.713
0.495,-0.353,0.819
0.508,-0.294,0.855
0.507,-0.32,0.896
0.477,-0.299,0.89
0.512,-0.277,0.912
0.544,-0.29,0.964
0.557,-0.262,0.98
0.584,-0.222,1.015
0.574,-0.192,0.957
0.623,-0.194,0.994
0.803,0.374,0.87
0.701,0.454,0.82
0.589,0.756,0.719
0.709,0.504,0.799
0.95,0.545,0.767
0.869,0.793,0.822
0.904,0.757,1.031
0.935,0.59,1.141
0.873,0.663,1.204
0.857,0.73,1.27
0.871,0.762,1.313
0.865,0.8,1.261
0.899,0.885,1.269
0.949,0.876,1.263
0.947,1.038,1.222
0.96,1.202,1.2
0.979,1.261,1.179
0.966,1.32,1.157
0.994,1.337,1.147
0.979,1.449,1.166
1.016,1.347,1.23
0.862,1.394,1.118
0.859,1.572,1.167
0.884,1.646,1.145
0.887,1.797,1.127
0.906,1.85,1.102
0.912,1.908,1.064
0.914,2.009,1.038
0.9,2.039,0.998
0.872,2.086,0.985
0.854,2.136,0.964
0.822,2.138,0.96
0.816,2.067,0.959
0.81,2.016,1.102
0.768,1.962,1.017
0.724,1.977,0.956
0.732,1.929,0.948
0.782,1.849,0.977
0.763,1.806,0.911
0.731,1.794,0.776
0.79,1.767,0.791
0.801,1.715,0.813
0.797,1.62,0.835
0.815,1.552,0.884
0.804,1.496,0.883
0.8,1.479,0.846
0.792,1.455,0.822
0.788,1.45,0.762
0.788,1.42,0.735
0.778,1.371,0.644
0.783,1.341,0.62
0.814,1.277,0.625
0.817,1.259,0.652
0.815,1.247,0.671
0.814,1.206,0.693
0.876,1.156,0.736
0.794,1.168,0.67
0.859,1.078,0.793
0.969,0.917,0.851
0.884,0.889,1.104
0.853,1.061,0.973
0.938,0.903,1.054
0.953,0.841,1.062
0.934,0.769,1.075
0.96,0.712,1.12
0.996,0.691,1.132
0.974,0.655,1.134
0.967,0.623,1.135
0.951,0.545,1.132
0.935,0.492,1.101
0.917,0.463,1.081
0.911,0.413,1.04
0.878,0.394,0.996
0.843,0.361,0.966
0.821,0.344,0.879
0.825,0.279,0.854
0.832,0.221,0.84
0.813,0.196,0.845
0.771,0.148,0.844
0.756,0.121,0.833
0.746,0.058,0.829
0.746,-0.033,0.825
0.756,-0.085,0.824
0.767,-0.214,0.844
0.763,-0.287,0.889
0.732,-0.391,0.934
0.719,-0.45,1.015
0.7,-0.486,0.997
0.645,-0.569,0.896
0.625,-0.567,0.804
0.668,-0.563,0.799
0.644,-0.631,0.718
0.617,-0.606,0.736
0.604,-0.591,0.69
0.576,-0.637,0.639
0.616,-0.646,0.682
0.644,-0.681,0.7
0.649,-0.835,0.66
0.664,-0.911,0.686
0.689,-1.03,0.731
0.701,-1.081,0.861
0.691,-1.211,0.926
0.681,-1.38,1.059
0.642,-1.463,1.167
0.577,-1.618,1.209
0.536,-1.674,1.335
0.503,-1.681,1.407
0.434,-1.792,1.387
0.38,-1.812,1.251
0.312,-1.783,1.2
0.306,-1.646,1.154
0.295,-1.59,1.097
0.295,-1.427,1.091
0.32,-1.439,1.078
0.309,-1.396,1.021
0.249,-1.262,0.979
0.245,-1.229,0.93
0.272,-1.21,0.934
0.282,-1.226,0.952
0.265,-1.288,0.981
0.249,-1.384,0.996
0.203,-1.443,0.981
0.17,-1.553,0.974
0.153,-1.627,0.954
0.136,-1.653,0.944
0.11,-1.721,0.937
0.112,-1.749,0.825
0.016,-1.599,0.785
0.089,-1.465,1.016
0.193,-1.65,0.91
0.077,-1.687,0.883
0.037,-1.572,0.766
0.043,-1.522,0.735
0.095,-1.468,0.729
0.103,-1.497,0.662
0.111,-1.433,0.651
0.116,-1.369,0.643
0.137,-1.366,0.667
0.148,-1.39,0.677
0.146,-1.409,0.7
0.16,-1.405,0.756
0.19,-1.379,0.787
0.191,-1.351,0.814
0.211,-1.315,0.835
0.248,-1.289,0.864
0.27,-1.148,0.915
0.297,-1.2,1.07
0.356,-1.183,1.052
0.364,-1.133,1.13
0.383,-1.111,1.139
0.378,-1.122,1.113
0.361,-1.117,1.088
0.368,-1.085,1.074
0.38,-1.072,1.048
0.399,-1.032,1.033
0.404,-0.975,0.979
0.387,-0.929,0.935
0.415,-0.899,0.877
0.415,-0.875,0.801
0.4,-0.779,0.772
0.417,-0.73,0.747
0.445,-0.73,0.69
0.447,-0.671,0.672
0.448,-0.574,0.639
0.455,-0.535,0.651
0.474,-0.519,0.673
0.49,-0.503,0.718
0.51,-0.437,0.734
0.519,-0.379,0.786
0.534,-0.343,0.85
0.575,-0.29,0.901
0.518,-0.127,0.757
0.634,-0.153,0.988
0.732,-0.16,1.046
0.697,-0.097,1.072
0.679,-0.035,1.087
0.679,-0.004,1.074
0.697,0.03,1.047
0.717,0.099,1.027
0.749,0.116,1.037
0.787,0.16,1.03
0.786,0.199,0.988
0.787,0.219,0.965
0.784,0.3,0.911
0.761,0.381,0.863
0.811,0.364,0.823
0.832,0.447,0.909
0.849,0.499,0.924
0.819,0.633,0.944
0.828,0.663,0.961
0.826,0.77,0.954
0.81,0.813,0.943
0.859,0.972,0.983
0.915,1.035,1.147
1.118,0.826,1.267
1.064,1.065,1.274
0.913,1.148,1.273
0.907,1.118,1.292
0.926,1.076,1.291
0.947,1.098,1.279
0.964,1.198,1.233
0.913,1.276,1.198
0.92,1.34,1.187
0.954,1.355,1.146
0.93,1.482,1.112
0.949,1.531,1.136
0.944,1.647,1.12
0.924,1.801,1.11
0.941,1.833,1.111
0.936,1.919,1.101
0.932,1.953,1.109
0.901,2.066,1.104
0.9,2.099,1.11
0.908,2.116,1.124
0.903,2.127,1.128
0.898,2.108,1.123
0.877,2.141,1.103
0.864,2.162,1.053
0.878,2.106,1.044
0.881,2.093,1.05
0.853,2.061,1.016
0.823,2.036,0.924
0.848,1.972,0.87
0.81,1.896,0.768
0.806,1.842,0.694
0.826,1.806,0.693
0.813,1.737,0.692
0.783,1.696,0.692
0.786,1.6,0.709
0.79,1.558,0.708
0.789,1.498,0.71
0.8,1.449,0.723
0.79,1.436,0.678
0.817,1.376,0.663
0.834,1.295,0.66
0.856,1.263,0.693
0.877,1.219,0.722
0.884,1.2,0.781
0.886,1.155,0.817
0.911,1.087,0.844
0.918,1.083,0.875
0.897,0.93,0.767
0.968,0.895,0.918
1.051,0.685,1.038
0.934,0.879,0.936
0.866,0.882,0.932
0.912,0.762,0.955
0.926,0.733,0.96
0.963,0.702,0.968
0.962,0.69,0.965
0.915,0.651,0.959
0.889,0.611,0.96
0.858,0.61,0.965
0.856,0.593,0.968
0.857,0.583,0.96
0.842,0.569,0.953
0.836,0.572,0.907
0.862,0.548,0.893
0.879,0.503,0.895
0.888,0.495,0.912
0.754,0.484,0.939
0.856,0.464,0.952
0.851,0.385,0.957
0.855,0.27,0.97
0.87,0.206,0.965
0.875,0.077,0.985
0.862,0.014,1.022
0.834,-0.086,1.051
0.813,-0.158,1.095
0.804,-0.187,1.163
0.778,-0.297,1.137
0.73,-0.339,0.99
0.688,-0.368,0.928
0.664,-0.524,0.737
0.678,-0.544,0.695
0.719,-0.618,0.745
0.721,-0.651,0.779
0.669,-0.679,0.801
0.654,-0.727,0.836
0.616,-0.758,0.833
0.615,-0.793,0.855
0.613,-0.797,0.882
0.631,-0.708,0.944
0.66,-0.791,0.99
0.638,-0.877,0.976
0.598,-0.839,1.051
0.607,-0.726,1.088
0.608,-0.742,1.09
0.624,-0.783,1.104
0.593,-0.794,1.062
0.618,-0.801,1.074
0.642,-0.947,1.033
0.643,-1.068,0.97
0.632,-1.155,0.916
0.616,-1.305,0.925
0.581,-1.417,0.939
0.576,-1.559,0.987
0.562,-1.634,1.02
0.515,-1.662,1.021
0.487,-1.692,1.06
0.467,-1.689,1.104
0.406,-1.671,1.116
0.355,-1.672,1.103
0.235,-1.669,1.096
0.208,-1.807,1.149
0.239,-2.249,1.296
0.271,-2.54,1.363
0.24,-3.011,1.453
0.088,-3.119,1.362
-0.07,-3.13,1.252
-0.086,-2.876,1.021
-0.044,-2.647,0.63
0.018,-2.132,0.598
0.114,-1.852,0.331
0.243,-1.346,0.394
0.387,-1.031,0.663
0.421,-1.014,0.712
0.407,-0.905,0.741
0.375,-0.781,0.709
0.341,-0.794,0.764
0.366,-0.886,0.818
0.355,-1.004,0.926
0.338,-1.104,0.938
0.337,-1.148,0.923
0.346,-1.149,0.865
0.411,-1.135,0.899
0.431,-1.047,0.848
0.422,-1.021,0.821
0.486,-0.999,0.819
0.51,-0.985,0.847
0.566,-0.973,0.878
0.585,-0.967,0.92
0.595,-0.976,0.962
0.613,-1.008,0.983
0.624,-1.023,1.015
0.621,-1.059,0.997
0.596,-1.098,0.981
0.584,-1.109,0.96
0.584,-1.062,0.961
0.608,-1.063,0.942
0.619,-1.029,0.935
0.63,-0.902,0.927
0.636,-0.815,0.92
0.64,-0.772,0.909
0.631,-0.783,0.863
0.621,-0.714,0.815
0.632,-0.684,0.824
0.635,-0.596,0.813
0.649,-0.562,0.813
0.695,-0.503,0.826
0.71,-0.421,0.86
0.768,-0.412,0.942
0.695,-0.275,0.84
0.693,-0.232,0.746
0.763,-0.152,0.767
0.817,-0.163,0.937
0.854,-0.138,1.056
0.849,0.062,1.149
0.865,0.112,1.118
0.896,0.149,1.108
0.895,0.201,1.07
0.916,0.212,1.081
0.932,0.238,1.076
0.939,0.34,1.1
0.954,0.377,1.078
0.958,0.408,1.064
0.941,0.482,0.946
1.056,0.426,0.996
1.103,0.578,1.138
1.013,0.59,1.108
1.001,0.656,1.143
0.998,0.689,1.142
1.01,0.719,1.114
1.013,0.759,1.072
1.049,0.837,1.063
1.058,0.879,1.084
1.049,0.913,1.084
1.122,0.998,1.074
1.057,0.99,1.226
1.019,1.133,1.211
1.011,1.177,1.169
1.039,1.241,1.174
1.048,1.285,1.167
1.031,1.3,1.165
0.988,1.418,1.124
0.982,1.41,1.118
0.943,1.459,1.109
0.931,1.615,1.079
0.904,1.583,1.047
0.922,1.576,1.045
0.885,1.66,0.94
0.884,1.696,0.947
0.882,1.868,0.913
0.846,1.87,0.91
0.875,1.969,0.946
0.814,2.033,0.934
0.863,2.037,0.956
0.845,2.053,0.909
0.823,2.162,0.901
0.838,2.191,0.913
0.854,2.206,0.931
0.827,2.253,0.933
0.819,2.263,0.928
0.81,2.254,0.921
0.806,2.259,0.884
0.8,2.257,0.861
0.817,2.168,0.83
0.841,2.203,0.78
0.821,1.991,0.7
0.811,1.983,0.642
0.793,1.984,0.613
0.818,1.886,0.656
0.836,1.835,0.647
0.834,1.721,0.671
0.875,1.629,0.671
0.822,1.627,0.666
0.835,1.602,0.673
0.889,1.466,0.669
0.904,1.383,0.7
0.945,1.339,0.758
0.945,1.341,0.748
0.915,1.314,0.777
0.961,1.223,0.81
0.966,1.178,0.867
0.977,1.098,0.907
0.977,1.034,0.975
0.976,0.997,1.029
0.955,0.937,1.036
0.972,0.902,1.098
1.005,0.815,1.116
1.007,0.752,1.108
0.97,0.732,1.081
0.947,0.674,1.019
0.915,0.646,0.964
0.93,0.579,0.953
0.94,0.507,0.924
0.941,0.473,0.912
0.945,0.394,0.902
0.934,0.37,0.89
0.903,0.317,0.882
0.891,0.293,0.842
0.889,0.234,0.823
0.896,0.173,0.822
0.901,0.156,0.866
0.882,0.146,0.894
0.87,0.143,0.949
0.856,0.127,0.973
0.858,0.073,1.007
0.882,0.03,1.014
0.904,-0.078,1.043
0.935,-0.146,1.06
0.936,-0.284,1.079
0.926,-0.39,1.123
0.911,-0.45,1.159
0.89,-0.572,1.171
0.89,-0.662,1.209
0.903,-0.705,1.245
0.817,-0.76,1.13
0.748,-0.829,0.846
0.732,-0.832,0.798
0.86,-0.784,0.873
0.849,-0.842,0.817
0.997,-0.993,0.999
0.977,-1.139,1.031
0.955,-1.214,1.125
0.908,-1.343,1.34
0.82,-1.535,1.085
0.753,-1.802,1.357
0.711,-1.953,1.46
0.651,-1.859,1.548
0.539,-1.798,1.512
0.52,-1.812,1.445
0.491,-1.796,1.332
0.486,-1.687,1.317
0.509,-1.536,1.318
0.48,-1.498,1.249
0.439,-1.444,1.098
0.394,-1.41,1.034
0.37,-1.317,1.01
0.397,-1.22,1.003
0.351,-1.486,0.861
0.291,-1.475,0.719
0.243,-1.496,0.701
0.224,-1.314,0.746
0.261,-1.497,0.893
0.212,-1.554,0.827
0.12,-1.546,0.786
0.095,-1.523,0.656
0.086,-1.536,0.608
0.107,-1.619,0.555
0.095,-1.621,0.518
0.065,-1.557,0.507
0.064,-1.526,0.491
0.061,-1.514,0.454
0.061,-1.525,0.437
0.049,-1.507,0.371
0.021,-1.484,0.333
0.031,-1.456,0.278
0.047,-1.452,0.268
0.077,-1.41,0.282
0.093,-1.342,0.33
0.126,-1.306,0.376
0.173,-1.29,0.409
0.205,-1.265,0.515
0.259,-1.243,0.566
0.328,-1.221,0.724
0.341,-1.2,0.8
0.366,-1.208,0.826
0.385,-1.186,0.88
0.432,-1.192,0.904
0.481,-1.204,0.951
0.517,-1.161,1.084
0.544,-1.15,1.104
0.525,-1.14,1.064
0.492,-1.119,1.011
0.536,-1.095,1.007
0.566,-1.017,1.028
0.564,-0.99,0.891
0.537,-0.995,0.928
0.531,-0.947,0.886
0.546,-0.921,0.875
0.575,-0.858,0.895
0.58,-0.841,0.893
0.566,-0.8,0.884
0.551,-0.751,0.864
0.598,-0.734,0.925
0.632,-0.59,0.981
0.693,-0.552,1.117
0.67,-0.539,1.111
0.699,-0.509,1.151
0.682,-0.499,1.085
0.731,-0.488,1.137
0.742,-0.446,1.125
0.753,-0.429,1.164
0.756,-0.39,1.155
0.778,-0.333,1.189
0.825,-0.266,1.244
0.747,-0.193,1.197
0.759,-0.142,1.178
0.803,-0.038,1.09
0.837,0.098,1.135
0.815,0.269,1.178
0.87,0.09,1.069
0.649,0.404,0.817
0.862,0.471,1.508
1.153,0.32,1.68
0.983,0.379,1.408
0.909,0.422,1.418
0.949,0.328,1.404
0.962,0.371,1.331
0.96,0.437,1.296
0.98,0.53,1.269
0.975,0.636,1.22
1.003,0.615,1.199
1.044,0.688,1.176
1.002,0.84,1.159
1.033,0.797,1.13
1.018,0.876,1.132
1.031,0.874,1.134
0.952,1.035,1.103
1.017,0.987,1.153
1.071,0.93,1.194
1.006,1.08,1.179
0.988,1.154,1.165
0.939,1.173,1.141
0.935,1.174,1.14
0.95,1.137,1.132
0.862,1.35,1.078
0.888,1.299,1.153
0.916,1.298,1.076
0.854,1.511,1.06
0.91,1.45,1.093
0.846,1.524,1.025
0.828,1.606,1.01
0.826,1.631,0.98
0.821,1.66,0.976
0.821,1.694,0.99
0.771,1.806,0.964
0.763,1.815,0.942
0.77,1.85,0.959
0.761,1.883,0.959
0.743,1.9,0.946
0.71,1.943,0.92
0.703,1.928,0.892
0.695,1.888,0.888
0.684,1.854,0.874
0.659,1.833,0.852
0.64,1.783,0.835
0.627,1.725,0.794
0.621,1.69,0.776
0.646,1.567,0.773
0.627,1.534,0.703
0.616,1.488,0.686
0.623,1.409,0.691
0.638,1.373,0.708
0.688,1.303,0.819
0.615,1.191,0.719
0.667,1.17,0.792
0.709,1.16,0.99
0.714,1.127,0.983
0.659,1.156,0.878
0.679,1.163,0.857
0.729,1.154,0.854
0.752,1.172,0.873
0.771,1.174,0.876
0.766,1.132,0.879
0.752,1.11,0.886
0.747,1.022,0.856
0.736,1.026,0.908
0.745,1.015,0.899
0.752,0.913,0.895
0.788,0.867,0.935
0.761,0.809,0.855
0.727,0.765,0.845
0.731,0.662,0.846
0.736,0.617,0.879
0.751,0.545,0.908
0.755,0.487,0.978
0.755,0.471,1.051
0.756,0.449,1.083
0.759,0.432,1.139
0.773,0.414,1.163
0.792,0.383,1.198
0.798,0.366,1.195
0.757,0.338,1.187
0.74,0.328,1.134
0.737,0.283,1.107
0.755,0.224,1.087
0.78,0.199,1.083
0.778,0.163,1.085
0.773,0.151,1.087
0.738,0.134,1.059
0.684,0.107,0.978
0.666,0.076,0.912
0.653,0.01,0.896
0.654,-0.029,0.858
0.668,-0.067,0.987
0.683,-0.137,0.941
0.668,-0.161,0.981
0.626,-0.199,0.998
0.609,-0.235,1.022
0.586,-0.241,0.99
0.537,-0.261,0.929
0.525,-0.146,0.825
0.579,-0.217,0.828
0.599,-0.303,0.752
0.572,-0.314,0.776
0.64,-0.288,0.802
0.623,-0.364,0.672
0.643,-0.413,0.859
0.687,-0.527,0.833
0.715,-0.725,0.904
0.717,-0.713,0.995
0.691,-0.89,0.946
0.699,-1.032,1.192
0.678,-1.152,1.276
0.622,-1.215,1.348
0.52,-1.232,1.368
0.448,-1.277,1.336
0.43,-1.268,1.287
0.377,-1.164,1.22
0.401,-0.988,1.219
0.413,-1.071,1.097
0.345,-1.045,0.927
0.285,-0.934,0.874
0.283,-0.894,0.833
0.282,-0.874,0.813
0.258,-0.859,0.761
0.247,-0.847,0.705
0.243,-0.819,0.687
0.247,-0.812,0.666
0.262,-0.825,0.637
0.274,-0.875,0.63
0.291,-0.927,0.667
0.291,-0.962,0.665
0.273,-1.066,0.673
0.271,-1.182,0.72
0.266,-1.243,0.754
0.245,-1.342,0.834
0.23,-1.381,0.903
0.212,-1.447,0.936
0.213,-1.525,0.994
0.199,-1.547,1.015
0.2,-1.608,1.011
0.203,-1.522,0.967
0.19,-1.357,1.057
0.36,-1.545,1.128
0.354,-1.565,1.112
0.264,-1.491,1.065
0.262,-1.456,1.019
0.285,-1.423,1.064
0.321,-1.335,1.087
0.325,-1.245,1.089
0.318,-1.208,1.051
0.322,-1.152,1.036
0.331,-1.086,1.017
0.362,-1.051,1.016
0.378,-1.011,0.987
0.368,-0.994,1.013
0.433,-0.911,1.076
0.408,-0.897,0.959
0.386,-0.905,0.936
0.427,-0.941,0.942
0.441,-0.929,1.014
0.462,-0.925,1.069
0.464,-0.899,1.089
0.478,-0.946,1.11
0.527,-1.013,1.145
0.551,-0.936,1.273
0.401,-0.797,1.138
0.465,-1.054,1.094
0.457,-1.043,1.011
0.425,-1.056,0.963
0.421,-1.023,0.895
0.419,-0.967,0.883
0.415,-0.925,0.872
0.406,-0.897,0.839
0.374,-0.915,0.785
0.361,-0.903,0.716
0.356,-0.813,0.691
0.343,-0.658,0.652
0.406,-0.626,0.739
0.414,-0.588,0.737
0.438,-0.541,0.833
0.49,-0.542,0.866
0.487,-0.507,0.895
0.492,-0.483,0.959
0.488,-0.419,0.938
0.512,-0.344,1.015
0.54,-0.317,1.008
0.555,-0.232,1.055
0.622,-0.213,1.089
0.65,-0.151,1.096
0.673,-0.077,1.245
0.622,-0.095,1.214
0.594,-0.117,1.157
0.591,-0.128,1.059
0.575,-0.095,1.007
0.614,-0.042,1.042
0.596,0.048,0.973
0.586,-0.021,0.871
0.662,-0.04,0.98
0.695,0.019,1.035
0.671,0.041,0.994
0.658,0.192,1.025
0.657,0.298,1.03
0.642,0.288,1.034
0.78,0.355,1.134
0.746,0.381,1.063
0.801,0.501,1.102
0.828,0.525,1.105
0.828,0.559,1.135
0.801,0.657,1.149
0.794,0.642,1.178
0.787,0.643,1.152
0.79,0.725,1.157
0.79,0.759,1.175
0.824,0.732,1.217
0.846,0.776,1.315
0.829,0.885,1.316
0.789,0.952,1.365
0.942,0.901,1.461
0.953,1.101,1.455
0.811,1.215,1.394
0.771,1.293,1.346
0.885,1.152,1.281
0.738,1.491,1.193
0.8,1.443,1.3
0.856,1.416,1.262
0.779,1.559,1.216
0.777,1.557,1.21
0.758,1.675,1.206
0.751,1.731,1.178
0.742,1.803,1.161
0.751,1.788,1.161
0.765,1.826,1.162
0.7,1.947,1.104
0.707,1.957,1.105
0.72,1.985,1.101
0.709,2.015,1.031
0.681,2.06,0.98
0.682,2.056,0.907
0.682,2.042,0.862
0.664,2.014,0.843
0.651,1.997,0.805
0.643,1.981,0.792
0.639,1.955,0.761
0.63,1.932,0.736
0.635,1.858,0.699
0.635,1.817,0.672
0.632,1.741,0.664
0.63,1.659,0.659
0.629,1.618,0.657
0.628,1.545,0.659
0.642,1.503,0.668
0.66,1.454,0.709
0.687,1.399,0.744
0.661,1.403,0.76
0.667,1.248,0.712
0.728,1.23,0.913
0.762,1.19,0.916
0.676,1.226,0.796
0.675,1.184,0.773
0.698,1.135,0.831
0.78,1.026,0.871
0.761,1.005,0.9
0.726,0.902,0.834
0.69,0.929,0.818
0.697,0.822,0.871
0.703,0.804,0.831
0.665,0.773,0.816
0.66,0.747,0.8
0.652,0.669,0.803
0.649,0.595,0.811
0.641,0.56,0.821
0.643,0.503,0.858
0.659,0.48,0.89
0.677,0.432,0.958
0.703,0.398,1.007
0.713,0.319,1.033
0.711,0.299,1.071
0.705,0.253,1.088
0.726,0.18,1.173
0.77,0.159,1.357
0.778,0.143,1.342
0.761,0.133,1.389
0.73,0.112,1.387
0.711,0.084,1.33
0.68,0.062,1.279
0.669,0.01,1.166
0.647,-0.027,1.095
0.622,-0.097,1.072
0.606,-0.131,1.05
0.51,-0.569,0.976
0.503,-0.623,0.946
0.557,-0.619,1.012
0.653,-0.562,1.152
0.638,-0.58,1.147
0.656,-0.704,1.223
0.508,-0.566,0.957
0.48,-0.933,0.957
0.573,-0.97,1.207
0.484,-0.925,1.188
0.458,-0.909,1.175
0.41,-0.957,1.118
0.382,-1.008,0.98
0.339,-1.015,0.882
0.318,-1.046,0.863
0.317,-1.081,0.869
0.306,-1.163,0.882
0.266,-1.22,0.885
0.236,-1.279,0.868
0.186,-1.31,0.85
0.163,-1.35,0.854
0.155,-1.368,0.885
0.157,-1.388,0.901
0.142,-1.393,0.903
0.147,-1.37,0.926
0.122,-1.496,0.888
0.09,-1.42,0.872
0.075,-1.364,0.904
0.086,-1.31,0.965
0.083,-1.294,0.913
0.067,-1.344,0.875
0.068,-1.261,0.932
0.058,-1.235,0.977
0.047,-1.222,1.029
0.024,-1.262,0.913
0.002,-1.381,0.876
-0.012,-1.39,0.85
0.001,-1.383,0.813
0,-1.312,0.826
0.01,-1.371,0.824
-0.024,-1.335,0.795
-0.034,-1.307,0.722
-0.034,-1.299,0.675
-0.01,-1.245,0.67
0.011,-1.181,0.697
0.051,-1.14,0.724
0.069,-1.079,0.753
0.078,-1.059,0.781
0.102,-1.043,0.809
0.107,-1.038,0.824
0.11,-1.053,0.859
0.132,-1.08,0.877
0.146,-1.095,0.888
0.166,-1.112,0.947
0.201,-1.099,0.955
0.17,-1.145,0.956
0.176,-1.123,0.977
0.188,-1.111,0.975
0.241,-1.012,1.039
0.28,-1.038,1.082
0.271,-1.027,1.058
0.288,-0.979,1.074
0.288,-0.828,1.072
0.313,-0.863,1.075
0.362,-0.912,1.071
0.365,-0.95,1.108
0.306,-0.76,1.068
0.284,-0.77,0.943
0.314,-0.764,0.907
0.337,-0.736,0.862
0.368,-0.722,0.856
0.36,-0.709,0.854
0.344,-0.694,0.828
0.324,-0.661,0.801
0.31,-0.648,0.767
0.335,-0.622,0.803
0.361,-0.605,0.781
0.392,-0.59,0.86
0.427,-0.587,0.882
0.421,-0.575,0.892
0.415,-0.521,0.848
0.5,-0.486,0.896
0.564,-0.408,1.015
0.562,-0.415,1.045
0.542,-0.403,1.034
0.556,-0.345,1.06
0.582,-0.323,1.038
0.633,-0.303,1.062
0.65,-0.147,1.105
0.568,-0.187,0.905
0.638,-0.218,0.875
0.757,-0.179,1.259
0.813,-0.089,1.322
0.768,0.027,1.354
0.765,0.052,1.357
0.778,0.106,1.294
0.798,0.164,1.217
0.8,0.332,1.125
0.922,0.381,1.367
0.905,0.401,1.351
0.834,0.395,1.35
0.871,0.408,1.398
0.857,0.433,1.396
0.839,0.473,1.358
0.881,0.512,1.329
0.876,0.581,1.267
0.878,0.588,1.206
0.857,0.704,1.177
0.864,0.628,1.133
0.846,0.776,1.086
0.866,0.77,1.088
0.756,0.919,1.023
0.836,0.709,1.081
0.846,0.641,1.127
0.726,0.944,1.142
0.714,0.972,1.141
0.795,0.901,1.176
0.8,1.047,1.19
0.796,1.074,1.254
0.82,1.092,1.381
0.809,1.104,1.401
0.777,1.159,1.415
0.774,1.169,1.461
0.772,1.205,1.472
0.766,1.253,1.46
0.776,1.323,1.449
0.78,1.407,1.419
0.742,1.449,1.268
0.709,1.493,1.335
0.706,1.518,1.293
0.691,1.608,1.261
0.693,1.628,1.172
0.66,1.657,1.123
0.643,1.613,1.047
0.601,1.625,1.026
0.588,1.599,1.011
0.586,1.586,1.037
0.568,1.619,1.027
0.566,1.621,1.006
0.569,1.621,0.998
0.597,1.583,1.023
0.588,1.589,0.961
0.583,1.589,0.954
0.593,1.572,0.969
0.584,1.533,0.957
0.579,1.503,0.945
0.579,1.475,0.913
0.566,1.412,0.887
0.562,1.254,0.828
0.556,1.309,0.794
0.557,1.245,0.764
0.557,1.22,0.759
0.554,1.195,0.767
0.569,1.176,0.796
0.595,1.139,0.822
0.609,1.112,0.913
0.642,1.028,0.95
0.661,0.891,1.008
0.668,0.866,1.071
0.686,0.725,1.101
0.729,0.705,1.208
0.695,0.682,1.239
0.735,0.546,1.445
0.664,0.704,1.427
0.614,0.637,1.361
0.713,0.595,1.37
0.675,0.56,1.295
0.648,0.54,1.266
0.616,0.512,1.207
0.619,0.456,1.168
0.61,0.452,1.125
0.568,0.438,1.092
0.557,0.383,1.034
0.547,0.356,1.003
0.545,0.282,0.963
0.545,0.257,0.977
0.546,0.225,0.988
0.552,0.186,1.033
0.586,0.069,1.079
0.597,-0.017,1.196
0.595,-0.044,1.258
0.589,-0.084,1.362
0.57,-0.103,1.396
0.554,-0.142,1.397
0.56,-0.167,1.371
0.578,-0.187,1.352
0.582,-0.218,1.301
0.588,-0.214,1.285
0.557,-0.224,1.244
0.534,-0.244,1.182
0.502,-0.248,1.14
0.459,-0.291,1.076
0.421,-0.353,0.864
0.412,-0.362,0.806
0.423,-0.445,0.772
0.415,-0.498,0.711
0.351,-0.544,0.658
0.329,-0.636,0.671
0.363,-0.668,0.77
0.346,-0.779,0.793
0.333,-0.906,0.831
0.307,-0.966,0.849
0.295,-1.046,0.899
0.291,-1.061,0.958
0.279,-1.078,0.973
0.27,-1.117,0.965
0.243,-1.13,0.948
0.219,-1.115,0.95
0.217,-1.095,0.976
0.22,-1.065,0.985
0.223,-1.026,1.001
0.237,-0.981,1.015
0.285,-0.863,1.037
0.313,-0.729,1.059
0.314,-0.642,1.098
0.319,-0.763,1.092
0.262,-0.8,1.003
0.187,-0.765,0.992
0.206,-0.797,0.995
0.198,-0.851,0.976
0.154,-0.933,0.957
0.007,-1.046,0.925
0.097,-1.119,0.894
0.051,-1.261,0.879
0.029,-1.313,0.898
-0.005,-1.319,0.945
-0.031,-1.329,0.956
-0.052,-1.339,0.916
-0.088,-1.346,0.842
-0.098,-1.349,0.818
-0.098,-1.339,0.821
-0.087,-1.322,0.858
-0.075,-1.236,0.87
-0.057,-1.217,0.913
-0.062,-1.213,0.926
-0.099,-1.22,0.933
-0.1,-1.334,0.911
-0.156,-1.292,0.939
-0.114,-1.389,0.966
-0.134,-1.379,0.918
-0.148,-1.364,0.854
-0.135,-1.297,0.826
-0.115,-1.253,0.809
-0.076,-1.239,0.818
-0.061,-1.207,0.826
-0.056,-1.188,0.846
-0.051,-1.188,0.866
-0.02,-1.22,0.869
0.008,-1.271,0.877
0.066,-1.276,0.885
0.092,-1.262,0.906
0.098,-1.248,0.919
0.106,-1.235,0.918
0.107,-1.228,0.887
0.113,-1.225,0.841
0.131,-1.211,0.825
0.174,-1.159,0.86
0.195,-1.178,1.024
0.18,-1.081,0.992
0.112,-1.099,0.853
0.12,-1.127,0.792
0.145,-1.017,0.793
0.182,-1.028,0.791
0.204,-1.002,0.784
0.203,-0.921,0.78
0.199,-0.897,0.642
0.178,-0.807,0.74
0.197,-0.816,0.749
0.199,-0.8,0.752
0.208,-0.765,0.792
0.232,-0.761,0.848
0.247,-0.735,0.877
0.246,-0.731,0.916
0.238,-0.746,0.92
0.232,-0.739,0.9
0.24,-0.738,0.878
0.256,-0.702,0.867
0.269,-0.648,0.866
0.293,-0.615,0.867
0.302,-0.526,0.861
0.307,-0.469,0.932
0.327,-0.416,0.964
0.312,-0.447,0.933
0.31,-0.437,0.85
0.334,-0.407,0.848
0.378,-0.359,0.926
0.383,-0.342,0.997
0.379,-0.327,1.022
0.38,-0.341,1.028
0.396,-0.333,1.008
0.453,-0.293,1.008
0.483,-0.137,1.056
0.528,-0.176,1.22
0.551,-0.084,1.159
0.561,-0.037,1.208
0.611,0.061,1.232
0.624,0.173,1.273
0.694,0.172,1.278
0.68,0.304,1.332
0.666,0.285,1.37
0.646,0.292,1.371
0.673,0.262,1.344
0.644,0.305,1.301
0.681,0.306,1.344
0.707,0.338,1.328
0.705,0.516,1.334
0.774,0.418,1.442
0.762,0.511,1.458
0.732,0.648,1.488
0.731,0.704,1.471
0.87,0.698,1.47
0.852,0.678,1.441
0.709,0.969,1.353
0.762,0.904,1.41
0.789,0.956,1.403
0.728,1.17,1.372
0.73,1.217,1.345
0.763,1.221,1.35
0.725,1.313,1.316
0.708,1.326,1.341
0.664,1.513,1.344
0.708,1.526,1.436
0.718,1.687,1.421
0.662,1.774,1.332
0.726,1.789,1.393
0.684,1.898,1.426
0.676,1.926,1.432
0.651,1.98,1.42
0.65,1.996,1.405
0.635,2.016,1.396
0.62,2.047,1.357
0.622,2.057,1.333
0.608,2.103,1.315
0.616,2.092,1.27
0.601,2.081,1.228
0.596,2.075,1.166
0.59,2.068,1.101
0.583,2.022,1.064
0.577,1.946,0.992
0.579,1.902,0.946
0.588,1.805,0.934
0.588,1.704,0.927
0.572,1.648,0.916
0.556,1.545,0.898
0.56,1.497,0.893
0.595,1.404,0.904
0.61,1.32,0.929
0.63,1.277,0.938
0.64,1.208,0.955
0.659,1.184,0.953
0.654,1.149,0.969
0.644,1.02,0.932
0.657,0.96,1.02
0.691,0.917,1.038
0.669,0.855,1.024
0.681,0.835,1.077
0.691,0.68,1.07
0.623,0.715,1.021
0.624,0.616,0.97
0.628,0.564,0.946
0.749,0.5,0.927
0.639,0.476,0.968
0.624,0.443,0.965
0.615,0.417,0.974
0.616,0.352,0.984
0.635,0.284,1.022
0.648,0.208,1.081
0.657,0.172,1.113
0.649,0.115,1.164
0.627,0.087,1.223
0.61,0.052,1.25
0.61,0.04,1.28
0.626,0.038,1.269
0.63,0.06,1.246
0.628,0.117,1.174
0.64,0.152,1.132
0.666,0.194,1.068
0.664,0.183,1.008
0.64,0.106,0.989
0.624,0.039,0.965
0.608,-0.025,0.966
0.572,-0.17,0.943
0.529,-0.233,0.938
0.543,-0.376,0.946
0.558,-0.446,1.014
0.579,-0.474,1.043
0.546,-0.504,1.031
0.55,-0.517,1.101
0.561,-0.547,1.119
0.571,-0.567,1.162
0.578,-0.612,1.135
0.578,-0.703,1.031
0.608,-0.735,0.949
0.597,-0.796,0.934
0.606,-0.819,0.923
0.558,-0.831,0.885
0.541,-0.842,0.885
0.55,-0.82,0.934
0.568,-0.795,1.001
0.595,-0.77,1.033
0.593,-0.792,1.091
0.544,-0.824,1.119
0.465,-0.919,1.18
0.431,-0.964,1.271
0.389,-1.049,1.315
0.381,-1.136,1.396
0.375,-1.176,1.446
0.366,-1.236,1.456
0.359,-1.372,1.437
0.349,-1.262,1.406
0.294,-1.259,1.284
0.274,-1.182,1.183
0.225,-1.335,1.064
0.157,-1.366,0.802
0.08,-1.286,0.712
0.065,-1.269,0.725
0.037,-1.382,0.749
-0.025,-1.45,0.592
-0.124,-1.338,0.619
-0.109,-1.282,0.748
-0.357,-1.173,0.778
-0.731,-1.183,0.836
-0.849,-1.897,1.077
-0.842,-2.435,1.303
-0.867,-3.31,1.333
-0.859,-3.485,1.266
-0.652,-3.396,1.061
-0.475,-3.005,0.909
-0.417,-2.408,0.611
-0.313,-2.057,0.383
-0.171,-1.441,0.344
-0.118,-1.078,0.244
-0.077,-0.857,0.215
-0.064,-0.68,0.24
-0.052,-0.645,0.403
-0.016,-0.638,0.516
-0.013,-0.744,0.686
-0.05,-0.737,0.854
0.112,-0.732,1.093
0.089,-0.804,1.153
0.032,-0.819,1.12
0.041,-0.833,0.942
0.058,-0.812,0.719
0.113,-0.773,0.651
0.154,-0.711,0.655
0.16,-0.696,0.696
0.163,-0.705,0.712
0.164,-0.744,0.761
0.184,-0.779,0.812
0.215,-0.883,0.863
0.243,-1.008,0.939
0.25,-1.018,0.969
0.314,-1.068,1.068
0.357,-1.078,1.159
0.407,-1.168,1.269
0.394,-0.929,1.26
0.311,-0.944,1.004
0.376,-0.941,1.027
0.391,-0.919,0.921
0.373,-0.897,0.836
0.355,-0.819,0.763
0.396,-0.847,0.711
0.388,-0.827,0.742
0.387,-0.753,0.811
0.426,-0.87,0.83
0.404,-0.875,0.833
0.39,-0.886,0.788
0.403,-0.856,0.781
0.439,-0.771,0.781
0.473,-0.712,0.848
0.514,-0.627,0.857
0.512,-0.539,0.858
0.52,-0.523,0.896
0.537,-0.494,0.912
0.536,-0.481,0.906
0.562,-0.476,0.929
0.594,-0.424,1.154
0.591,-0.469,1.034
0.584,-0.512,1.091
0.607,-0.503,1.015
0.591,-0.407,0.948
0.626,-0.432,1.005
0.738,-0.447,1.087
0.7,-0.342,1.088
0.66,-0.243,1.083
0.682,-0.26,1.046
0.703,-0.045,0.998
0.784,-0.013,1.134
0.782,0.027,1.141
0.732,0.087,1.113
0.862,0.147,1.22
0.852,0.17,1.295
0.88,0.199,1.394
0.925,0.244,1.417
0.927,0.268,1.398
0.902,0.285,1.342
0.853,0.405,1.346
0.908,0.392,1.318
0.866,0.468,1.261
0.893,0.483,1.239
0.933,0.512,1.274
0.915,0.658,1.229
0.859,0.619,1.338
0.938,0.568,1.334
0.858,0.713,1.248
0.824,0.846,1.196
0.873,0.868,1.181
0.889,0.922,1.146
0.912,0.963,1.184
0.884,1.026,1.207
0.888,1.058,1.236
0.835,1.21,1.272
0.914,1.148,1.321
0.883,1.381,1.332
0.865,1.393,1.399
0.869,1.475,1.405
0.877,1.554,1.447
0.836,1.667,1.432
0.966,1.732,1.441
0.882,1.741,1.442
0.834,1.871,1.432
0.82,1.916,1.423
0.797,2.007,1.408
0.801,2.041,1.391
0.774,2.089,1.378
0.741,2.192,1.314
0.75,2.184,1.297
0.742,2.064,1.214
0.669,2.184,1.166
0.729,2.14,1.181
0.712,2.074,1.146
0.663,2.045,1.114
0.657,1.958,1.046
0.665,1.918,0.989
0.673,1.822,0.962
0.676,1.769,0.939
0.67,1.665,0.938
0.668,1.559,0.957
0.67,1.51,1.001
0.677,1.433,1.021
0.674,1.399,1.014
0.676,1.337,1.007
0.686,1.263,0.981
0.72,1.234,1.007
0.736,1.126,0.989
0.707,1.114,0.99
0.707,1.114,0.985
0.731,0.896,0.986
0.743,0.885,1.002
0.69,0.973,0.946
0.694,0.906,0.948
0.724,0.823,0.956
0.727,0.79,0.998
0.739,0.719,1.026
0.74,0.651,1.093
0.74,0.624,1.119
0.705,0.557,1.047
0.691,0.527,1.021
0.708,0.484,1.004
0.717,0.457,0.96
0.717,0.402,0.936
0.72,0.346,0.924
0.721,0.317,0.936
0.715,0.232,0.95
0.706,0.147,0.984
0.677,0.109,1.013
0.673,-0.003,1.065
0.69,-0.052,1.126
0.685,-0.117,1.14
0.647,-0.246,1.07
0.653,-0.296,1.128
0.648,-0.295,1.157
0.627,-0.136,1.215
0.579,-0.18,1.222
0.57,-0.139,1.195
0.593,-0.119,1.152
0.63,-0.063,1.132
0.636,-0.007,1.086
0.642,0.011,1.079
0.668,-0.004,1.104
0.669,-0.016,1.136
0.662,-0.063,1.153
0.654,-0.153,1.162
0.647,-0.207,1.179
0.627,-0.326,1.146
0.604,-0.392,1
0.62,-0.496,0.982
0.644,-0.606,0.94
0.602,-0.645,0.903
0.534,-0.784,0.854
0.54,-0.891,0.859
0.545,-0.971,0.827
0.553,-1.1,0.935
0.537,-1.144,0.973
0.483,-1.21,0.985
0.423,-1.235,1.017
0.433,-1.196,1.048
0.449,-1.093,1.125
0.474,-1.091,1.104
0.452,-0.985,1.095
0.495,-1.03,1.207
0.529,-0.991,1.26
0.501,-0.916,1.3
0.497,-0.903,1.317
0.497,-0.917,1.328
0.486,-0.93,1.305
0.446,-1.001,1.279
0.42,-1.077,1.213
0.378,-1.101,1.105
0.31,-1.137,1.075
0.323,-1.264,0.972
0.201,-1.399,0.817
0.176,-1.401,0.786
0.145,-1.47,0.758
0.028,-1.343,0.711
0.07,-1.401,0.742
0.058,-1.452,0.68
0.059,-1.508,0.716
0.033,-1.5,0.769
-0.001,-1.477,0.796
-0.013,-1.471,0.768
-0.009,-1.454,0.628
0.012,-1.404,0.721
0.021,-1.383,0.71
0.013,-1.356,0.702
0.007,-1.336,0.706
0.004,-1.33,0.719
0.014,-1.332,0.729
0.034,-1.323,0.69
0.04,-1.283,0.802
0.118,-1.221,0.844
0.098,-1.222,0.858
0.069,-1.274,0.8
0.078,-1.262,0.821
0.087,-1.273,0.848
0.101,-1.274,0.886
0.134,-1.252,0.911
0.153,-1.208,0.956
0.181,-1.196,0.973
0.209,-1.178,0.983
0.222,-1.153,0.988
0.244,-1.116,0.987
0.373,-1.084,0.958
0.281,-1.077,1.031
0.292,-1.047,1.001
0.27,-1.068,0.978
0.363,-1.019,1.123
0.258,-0.929,0.998
0.229,-0.94,0.879
0.303,-0.882,0.888
0.32,-0.93,0.822
0.324,-0.914,0.819
0.299,-0.906,0.836
0.289,-0.767,0.868
0.259,-0.82,0.868
0.236,-0.709,0.819
0.298,-0.723,0.914
0.348,-0.773,0.924
0.337,-0.765,0.995
0.323,-0.772,1.034
0.286,-0.73,1.029
0.29,-0.693,1.026
0.357,-0.608,1.043
0.385,-0.542,1.051
0.41,-0.518,1.022
0.367,-0.512,1.008
0.368,-0.512,0.984
0.346,-0.502,0.976
0.351,-0.493,0.961
0.353,-0.491,0.922
0.363,-0.474,0.911
0.378,-0.455,0.875
0.413,-0.419,0.938
0.479,-0.343,1.04
0.475,-0.357,1.017
0.453,-0.347,0.977
0.484,-0.297,0.99
0.501,-0.208,0.969
0.58,-0.22,1.024
0.601,-0.22,1.165
0.575,-0.163,1.204
0.556,-0.119,1.218
0.551,-0.091,1.209
0.584,-0.099,1.156
0.587,0.055,1.181
0.646,0.068,1.218
0.643,0.149,1.235
0.643,0.149,1.184
0.763,0.22,1.262
0.763,0.257,1.349
0.729,0.249,1.42
0.731,0.274,1.425
0.738,0.255,1.411
0.751,0.288,1.388
0.718,0.41,1.35
0.767,0.378,1.367
0.74,0.514,1.253
0.771,0.525,1.252
0.805,0.605,1.277
0.765,0.636,1.262
0.742,0.665,1.265
0.75,0.7,1.268
0.763,0.779,1.287
0.666,1.016,1.18
0.744,0.961,1.216
0.754,1.028,1.167
0.739,1.108,1.135
0.713,1.105,1.141
0.722,1.112,1.191
0.669,1.191,1.234
0.667,1.254,1.255
0.648,1.298,1.255
0.651,1.296,1.256
0.618,1.4,1.24
0.638,1.39,1.217
0.598,1.486,1.188
0.598,1.518,1.164
0.598,1.561,1.157
0.595,1.606,1.168
0.599,1.628,1.202
0.578,1.717,1.21
0.591,1.719,1.256
0.602,1.741,1.275
0.592,1.792,1.28
0.595,1.801,1.263
0.629,1.833,1.257
0.702,1.769,1.267
0.598,1.882,1.16
0.62,1.885,1.212
0.619,1.885,1.212
0.603,1.871,1.199
0.596,1.85,1.133
0.586,1.783,1.089
0.589,1.692,1.005
0.596,1.651,0.964
0.601,1.565,0.926
0.624,1.515,0.976
0.632,1.42,0.982
0.624,1.382,1.012
0.646,1.294,1.044
0.652,1.178,1.064
0.672,1.136,1.074
0.668,1.08,1.057
0.712,0.964,1.064
0.733,0.847,1.109
0.688,0.91,1.06
0.693,0.87,1.065
0.712,0.815,1.052
0.728,0.789,1.068
0.773,0.719,1.105
0.781,0.684,1.195
0.732,0.682,1.182
0.697,0.626,1.151
0.717,0.571,1.149
0.725,0.477,1.15
0.734,0.437,1.174
0.74,0.366,1.19
0.739,0.312,1.222
0.734,0.285,1.367
0.734,0.25,1.284
0.736,0.234,1.312
0.734,0.213,1.317
0.726,0.204,1.302
0.703,0.172,1.285
0.692,0.132,1.222
0.705,0.098,1.196
0.735,0.047,1.203
0.741,0.031,1.234
0.713,-0.006,1.243
0.688,-0.045,1.228
0.645,-0.071,1.175
0.631,-0.145,1.144
0.623,-0.233,1.093
0.6,-0.287,1.084
0.589,-0.384,1.136
0.576,-0.432,1.22
0.541,-0.529,1.246
0.533,-0.624,1.321
0.532,-0.667,1.403
0.522,-0.733,1.404
0.378,-0.792,1.302
0.465,-0.795,1.212
0.448,-0.802,1.171
0.429,-0.775,1.117
0.386,-0.785,1.047
0.343,-0.77,0.851
0.391,-0.739,0.967
0.43,-0.679,0.949
0.427,-0.655,0.957
0.402,-0.658,0.947
0.369,-0.666,0.941
0.36,-0.656,0.939
0.361,-0.623,0.942
0.369,-0.568,0.939
0.388,-0.552,0.927
0.411,-0.567,0.899
0.421,-0.601,0.873
0.418,-0.718,0.867
0.406,-0.861,0.876
0.381,-0.923,0.888
0.372,-1.032,0.892
0.37,-1.126,0.874
0.345,-1.163,0.834
0.292,-1.212,0.799
0.263,-1.227,0.718
0.225,-1.253,0.669
0.206,-1.273,0.6
0.193,-1.24,0.611
0.173,-1.401,0.572
0.12,-1.413,0.475
0.097,-1.334,0.51
0.128,-1.262,0.654
0.118,-1.259,0.581
0.132,-1.375,0.586
0.139,-1.283,0.684
0.142,-1.289,0.756
0.131,-1.329,0.767
0.126,-1.336,0.767
0.144,-1.317,0.763
0.161,-1.291,0.727
0.184,-1.271,0.731
0.169,-1.234,0.722
0.162,-1.261,0.735
0.163,-1.289,0.759
0.16,-1.342,0.768
0.151,-1.366,0.762
0.127,-1.394,0.752
0.121,-1.391,0.741
0.127,-1.385,0.734
0.144,-1.359,0.736
0.161,-1.397,0.709
0.127,-1.372,0.624
0.268,-1.3,0.895
0.217,-1.341,0.943
0.193,-1.295,0.928
0.187,-1.265,0.789
0.222,-1.279,0.732
0.301,-1.263,0.77
0.304,-1.208,0.821
0.289,-1.194,0.972
0.306,-1.16,0.951
0.324,-1.122,0.987
0.318,-1.104,0.944
0.349,-1.134,0.928
0.414,-1.111,0.934
0.484,-1.135,1.081
0.479,-0.99,1.089
0.362,-0.985,0.998
0.386,-0.98,0.938
0.43,-1.001,0.89
0.427,-1.001,0.874
0.418,-1.017,0.858
0.392,-0.996,0.846
0.371,-0.814,0.761
0.366,-0.783,0.855
0.481,-0.826,0.895
0.46,-0.767,0.939
0.477,-0.794,0.959
0.46,-0.78,0.927
0.409,-0.741,0.898
0.41,-0.659,0.888
0.434,-0.592,0.915
0.476,-0.577,0.935
0.482,-0.538,0.93
0.479,-0.511,0.953
0.478,-0.508,0.929
0.474,-0.497,0.918
0.485,-0.489,0.944
0.538,-0.466,0.95
0.559,-0.362,1.028
0.646,-0.32,1.24
0.576,-0.339,1.168
0.579,-0.342,1.11
0.601,-0.342,1.065
0.63,-0.31,1.068
0.686,-0.282,1.133
0.706,-0.252,1.173
0.698,-0.25,1.159
0.722,-0.191,1.19
0.779,-0.189,1.158
0.746,-0.079,1.285
0.877,-0.01,1.376
0.834,0.102,1.325
0.865,0.146,1.308
0.9,0.249,1.377
0.873,0.249,1.29
0.852,0.248,1.246
0.848,0.283,1.197
0.818,0.331,1.157
0.791,0.519,1.19
0.818,0.488,1.15
0.778,0.616,1.123
0.818,0.74,1.134
0.834,0.671,1.157
0.838,0.751,1.182
0.773,0.855,1.25
0.912,0.69,1.329
0.9,0.97,1.467
0.794,1.094,1.452
0.83,1.038,1.534
0.849,1.08,1.524
0.862,1.07,1.588
0.838,1.08,1.641
0.803,1.095,1.672
0.817,1.229,1.71
0.772,1.312,1.705
0.774,1.355,1.696
0.788,1.35,1.702
0.749,1.502,1.689
0.729,1.572,1.663
0.727,1.623,1.645
0.714,1.767,1.599
0.694,1.824,1.584
0.682,1.887,1.525
0.667,1.908,1.49
0.648,2.007,1.475
0.639,2.043,1.429
0.629,2.123,1.423
0.677,2.021,1.32
0.564,2.17,1.225
0.578,2.171,1.237
0.6,2.085,1.18
0.572,2.045,1.117
0.557,2.047,1.034
0.555,1.943,0.972
0.555,1.85,0.858
0.536,1.806,0.784
0.532,1.717,0.77
0.528,1.667,0.752
0.519,1.56,0.75
0.52,1.483,0.747
0.525,1.449,0.747
0.532,1.362,0.748
0.55,1.31,0.756
0.574,1.193,0.79
0.589,1.127,0.825
0.585,1.043,0.843
0.591,0.971,0.917
0.612,0.899,0.948
0.606,0.877,1.012
0.613,0.861,1.071
0.637,0.689,1.147
0.637,0.705,1.229
0.638,0.748,1.222
0.504,0.728,1.155
0.631,0.695,1.129
0.658,0.617,1.113
0.687,0.592,1.202
0.702,0.529,1.182
0.654,0.486,1.095
0.619,0.448,1.05
0.62,0.363,0.981
0.677,-0.18,1.211
0.658,-0.228,1.208
0.61,-0.334,1.191
0.594,-0.441,1.183
0.639,-0.61,1.159
0.529,-0.611,1.048
0.447,-0.696,0.944
0.424,-0.719,0.948
0.468,-0.742,0.95
0.507,-0.753,0.98
0.503,-0.765,0.909
0.515,-0.742,0.949
0.515,-0.706,0.997
0.543,-0.775,1.156
0.45,-0.638,0.995
0.376,-0.716,0.947
0.568,-0.859,1.117
0.587,-0.763,1.287
0.496,-0.745,1.218
0.435,-0.774,1.201
0.427,-0.762,1.122
0.42,-0.735,1.063
0.444,-0.68,0.968
0.466,-0.694,0.953
0.461,-0.761,0.956
0.433,-0.853,0.959
0.375,-0.916,0.934
0.336,-1.069,0.921
0.319,-1.218,0.907
0.272,-1.283,0.899
0.238,-1.376,0.888
0.225,-1.407,0.863
0.193,-1.433,0.848
0.179,-1.436,0.816
0.142,-1.392,0.827
0.147,-1.364,0.798
0.149,-1.352,0.755
0.115,-1.349,0.707
0.096,-1.364,0.662
0.098,-1.329,0.746
0.093,-1.282,0.789
0.088,-1.325,0.838
0.064,-1.356,0.842
0.06,-1.4,0.84
0.061,-1.433,0.825
0.064,-1.442,0.823
0.062,-1.439,0.813
0.045,-1.452,0.806
0.037,-1.432,0.772
0.013,-1.222,0.83
0.085,-1.315,0.835
0.081,-1.39,0.837
0.064,-1.326,0.859
0.028,-1.322,0.831
0.044,-1.314,0.824
0.06,-1.295,0.868
0.098,-1.259,0.89
0.11,-1.245,0.922
0.129,-1.211,0.9
0.249,-1.134,1.228
0.312,-1.059,1.308
0.118,-1.118,1.131
0.137,-1.148,1.082
0.226,-1.087,1.118
0.303,-0.985,1.152
0.298,-1.009,1.091
0.239,-0.995,1.083
0.234,-0.979,1.085
0.232,-0.961,1.052
0.243,-0.969,1.025
0.254,-0.971,0.988
0.256,-0.963,0.942
0.262,-0.956,0.921
0.264,-0.944,0.889
0.27,-0.933,0.888
0.275,-0.932,0.902
0.258,-0.918,0.834
0.18,-0.793,0.725
0.264,-0.867,0.883
0.325,-0.803,0.874
0.327,-0.77,0.934
0.356,-0.804,1.038
0.337,-0.825,1.062
0.324,-0.814,1.096
0.324,-0.81,1.103
0.329,-0.75,1.078
0.346,-0.652,1.086
0.381,-0.607,1.071
0.406,-0.534,1.047
0.403,-0.493,1.013
0.4,-0.44,0.981
0.437,-0.338,0.987
0.467,-0.289,1.126
0.431,-0.351,1.099
0.386,-0.38,0.99
0.358,-0.365,0.934
0.407,-0.336,0.959
0.44,-0.303,0.976
0.444,-0.286,0.997
0.445,-0.254,0.996
0.438,-0.174,0.977
0.44,-0.159,0.978
0.458,-0.14,0.988
0.451,-0.12,0.979
0.444,-0.043,1.111
0.478,0.011,1.029
0.481,0.025,1.041
0.486,0.05,1.056
0.49,0.057,1.092
0.487,0.058,1.106
0.468,0.096,1.128
0.515,0.131,1.169
0.567,0.207,1.148
0.579,0.331,1.216
0.585,0.323,1.217
0.55,0.356,1.215
0.535,0.406,1.227
0.581,0.415,1.203
0.591,0.572,1.26
0.773,0.476,1.365
0.766,0.796,1.432
0.57,0.839,1.485
0.645,0.792,1.421
0.614,0.86,1.427
0.705,0.81,1.508
0.692,0.936,1.469
0.64,0.935,1.476
0.668,0.974,1.48
0.596,1.058,1.392
0.621,1.096,1.383
0.661,1.086,1.444
0.63,1.16,1.431
0.598,1.213,1.401
0.596,1.249,1.401
0.581,1.349,1.362
0.63,1.369,1.37
0.612,1.46,1.24
0.611,1.494,1.155
0.611,1.563,1.13
0.599,1.611,1.074
0.565,1.632,1.042
0.547,1.682,0.979
0.524,1.701,0.951
0.506,1.78,0.936
0.529,1.79,0.959
0.539,1.782,0.944
0.537,1.821,0.962
0.513,1.844,0.961
0.513,1.816,0.958
0.527,1.807,0.943
0.518,1.792,0.919
0.528,1.753,0.923
0.528,1.737,0.908
0.521,1.729,0.908
0.528,1.726,0.895
0.529,1.71,0.878
0.537,1.696,0.843
0.546,1.639,0.816
0.551,1.568,0.782
0.566,1.526,0.77
0.567,1.429,0.76
0.56,1.382,0.772
0.552,1.304,0.774
0.564,1.219,0.8
0.583,1.167,0.805
0.592,1.072,0.833
0.622,1.033,0.876
0.68,0.943,0.907
0.673,0.939,0.929
0.668,0.812,0.97
0.717,0.758,1.03
0.703,0.729,1.099
0.794,0.503,1.271
0.739,0.789,1.156
0.605,0.753,1.085
0.678,0.639,1.062
0.691,0.628,0.963
0.73,0.589,0.938
0.743,0.562,0.922
0.715,0.514,0.924
0.695,0.472,0.949
0.675,0.454,0.963
0.677,0.414,0.994
0.684,0.391,1
0.676,0.349,0.999
0.668,0.334,0.978
0.676,0.244,0.969
0.7,0.101,1.001
0.73,0.047,1.035
0.73,-0.023,1.14
0.726,-0.063,1.258
0.708,-0.113,1.334
0.689,-0.116,1.26
0.676,-0.112,1.164
0.671,-0.148,1.087
0.666,-0.172,1.091
0.624,-0.185,1.033
0.617,-0.229,1.006
0.65,-0.297,1.036
0.676,-0.332,1.059
0.701,-0.387,0.942
0.769,-0.499,0.941
0.727,-0.608,0.935
0.688,-0.661,1.018
0.703,-0.737,1.129
0.702,-0.75,1.168
0.717,-0.969,1.215
0.866,-0.944,1.196
0.549,-0.996,0.904
0.818,-1.237,1.545
0.814,-1.181,1.831
0.692,-1.02,1.816
0.618,-0.93,1.689
0.587,-0.949,1.617
0.613,-0.909,1.571
0.605,-0.85,1.42
0.527,-0.881,1.284
0.5,-1.011,1.117
0.515,-1.046,1.057
0.5,-1.069,1.037
0.481,-1.098,1.013
0.441,-1.116,1.016
0.415,-1.144,1.021
0.411,-1.154,1.045
0.411,-1.2,1.045
0.41,-1.157,1.089
0.438,-1.258,1.047
0.373,-1.303,1.013
0.347,-1.31,1.008
0.337,-1.317,0.995
0.275,-1.346,0.963
0.247,-1.498,0.892
0.233,-1.482,0.879
0.205,-1.263,0.771
0.18,-1.346,0.84
0.279,-1.474,0.874
0.206,-1.386,0.753
0.126,-1.263,0.723
0.127,-1.275,0.605
0.154,-1.343,0.549
0.155,-1.348,0.565
0.137,-1.34,0.589
0.133,-1.331,0.642
0.121,-1.324,0.652
0.122,-1.293,0.648
0.129,-1.273,0.613
0.15,-1.23,0.6
0.166,-1.208,0.581
0.174,-1.22,0.57
0.174,-1.255,0.572
0.171,-1.265,0.586
0.171,-1.265,0.594
0.181,-1.28,0.626
0.218,-1.284,0.685
0.25,-1.232,0.702
0.261,-1.247,0.741
0.302,-1.234,0.892
0.354,-1.162,0.957
0.314,-1.139,0.903
0.321,-1.11,0.922
0.377,-1.15,0.914
0.463,-1.005,1.331
0.376,-0.986,1
0.323,-1.005,0.99
0.377,-1.076,0.924
0.363,-1.08,0.875
0.368,-1.045,0.834
0.36,-1.04,0.79
0.357,-1.019,0.786
0.36,-0.99,0.77
0.37,-0.889,0.773
0.404,-0.831,0.776
0.498,-0.904,0.934
0.488,-0.92,0.936
0.456,-0.979,0.972
0.419,-0.962,0.947
0.414,-0.914,0.978
0.435,-0.824,1.013
0.483,-0.787,1.051
0.551,-0.746,1.088
0.558,-0.679,1.111
0.559,-0.665,1.113
0.563,-0.642,1.12
0.556,-0.627,1.088
0.542,-0.577,1.079
0.558,-0.529,1.054
0.583,-0.451,1.101
0.613,-0.396,1.162
0.568,-0.304,1.005
0.456,-0.272,0.758
0.52,-0.307,0.742
0.59,-0.273,0.873
0.611,-0.248,0.91
0.544,-0.21,0.926
0.525,-0.183,0.939
0.547,-0.114,0.946
0.574,-0.06,0.931
0.595,-0.008,0.959
0.633,0.064,0.984
0.632,0.073,1.011
0.632,0.093,1.019
0.627,0.166,1.028
0.631,0.124,1.003
0.731,0.293,1.123
0.699,0.27,1.139
0.709,0.268,1.183
0.687,0.254,1.193
0.702,0.239,1.197
0.684,0.345,1.179
0.696,0.407,1.203
0.745,0.427,1.208
0.754,0.535,1.229
0.792,0.579,1.278
0.707,0.783,1.279
0.804,0.547,1.421
0.786,0.773,1.355
0.712,1.119,1.316
0.753,1.088,1.359
0.802,0.966,1.416
0.772,1.146,1.44
0.795,1.085,1.498
0.7,1.305,1.416
0.688,1.354,1.427
0.742,1.296,1.458
0.698,1.457,1.473
0.697,1.458,1.544
0.713,1.558,1.551
0.697,1.668,1.545
0.685,1.699,1.531
0.669,1.78,1.515
0.657,1.815,1.474
0.641,1.9,1.457
0.634,1.948,1.416
0.63,1.948,1.404
0.599,1.977,1.388
0.585,2.02,1.317
0.6,2.016,1.297
0.617,1.931,1.207
0.577,1.965,1.161
0.566,2.025,1.1
0.597,1.973,1.054
0.609,1.935,1.073
0.602,1.79,0.96
0.54,1.778,0.947
0.561,1.724,0.998
0.581,1.677,1.006
0.58,1.59,0.998
0.576,1.55,0.967
0.587,1.456,0.958
0.596,1.27,0.972
0.579,1.272,0.956
0.567,1.186,0.94
0.577,1.146,0.944
0.59,1.074,0.958
0.597,1.001,0.978
0.628,0.965,1
0.634,0.933,1.006
0.637,0.914,1.033
0.661,0.79,1.069
0.673,0.764,1.214
0.696,0.678,1.179
0.673,0.726,1.137
0.665,0.733,1.098
0.703,0.662,1.087
0.726,0.648,1.085
0.731,0.618,1.086
0.73,0.595,1.074
0.73,0.552,1.066
0.732,0.535,1.053
0.737,0.508,1.059
0.734,0.481,1.065
0.722,0.446,1.058
0.721,0.37,1.03
0.733,0.337,1.021
0.744,0.291,1.016
0.741,0.278,0.981
0.725,0.242,0.956
0.738,0.169,0.948
0.795,0.145,1.102
0.817,0.117,1.073
0.816,0.116,1.193
0.791,0.123,1.223
0.772,0.122,1.191
0.766,0.109,1.15
0.777,0.054,1.042
0.814,0.012,0.961
0.815,-0.073,0.908
0.801,-0.216,0.845
0.756,-0.305,0.834
0.688,-0.464,0.833
0.657,-0.523,0.874
0.647,-0.613,0.939
0.519,-0.656,1.05
0.617,-0.673,1.08
0.593,-0.599,1.103
0.617,-0.496,1.213
0.669,-0.486,1.256
0.679,-0.518,1.278
0.7,-0.491,1.345
0.671,-0.527,1.341
0.709,-0.586,1.491
0.714,-0.633,1.477
0.69,-0.723,1.445
0.669,-0.77,1.339
0.62,-0.837,1.294
0.6,-0.898,1.242
0.564,-0.95,1.207
0.52,-1.073,1.188
0.487,-1.218,1.144
0.408,-1.276,1.096
0.339,-1.327,1.074
0.318,-1.32,1.032
0.305,-1.264,1.009
0.306,-1.168,0.964
0.315,-1.116,0.921
0.329,-1.011,0.911
0.329,-0.961,0.861
0.316,-0.905,0.864
0.34,-1.056,0.823
0.267,-1.116,0.744
0.231,-1.026,0.771
0.238,-1.005,0.866
0.227,-0.997,0.868
0.202,-1.138,0.765
0.201,-1.148,0.856
0.142,-1.094,0.871
0.126,-1.118,0.911
0.121,-1.158,0.776
0.101,-1.247,0.838
0.094,-1.317,0.787
0.075,-1.352,0.774
0.064,-1.426,0.733
0.031,-1.438,0.752
0.02,-1.494,0.749
0.014,-1.529,0.756
0.01,-1.525,0.744
0.012,-1.522,0.685
0.027,-1.47,0.682
0.065,-1.431,0.742
0.09,-1.358,0.78
0.104,-1.298,0.856
0.102,-1.265,0.937
0.069,-1.301,0.821
0.053,-1.228,1.01
0.211,-1.232,1.098
0.136,-1.261,1.07
0.138,-1.256,0.982
0.15,-1.177,0.907
0.176,-1.126,0.818
0.262,-1.114,0.854
0.294,-1.111,0.899
0.288,-1.082,0.974
0.29,-1.056,1.041
0.309,-1.023,1.063
0.324,-0.99,1.097
0.329,-0.963,1.093
0.331,-0.946,1.085
0.338,-0.948,1.069
0.352,-0.935,1.052
0.409,-1.071,1.276
0.349,-0.932,1.054
0.269,-0.902,0.999
0.312,-0.907,0.909
0.35,-0.882,0.842
0.372,-0.845,0.774
0.387,-0.826,0.741
0.373,-0.808,0.732
0.378,-0.755,0.789
0.448,-0.782,0.838
0.456,-0.726,0.911
0.425,-0.685,0.929
0.424,-0.684,0.921
0.428,-0.629,0.914
0.448,-0.594,0.923
0.46,-0.557,0.917
0.453,-0.504,0.923
0.605,0.345,1.326
0.63,0.326,1.425
0.627,0.381,1.472
0.626,0.407,1.542
0.632,0.423,1.572
0.678,0.502,1.616
0.68,0.531,1.647
0.669,0.677,1.69
0.645,0.661,1.665
0.798,0.611,1.8
0.501,0.939,1.752
0.581,0.974,1.686
0.658,0.904,1.719
0.664,1.016,1.763
0.624,1.028,1.766
0.639,1.034,1.82
0.544,1.185,1.647
0.566,1.201,1.623
0.59,1.342,1.559
0.532,1.393,1.517
0.535,1.388,1.482
0.55,1.443,1.47
0.484,1.634,1.427
0.488,1.663,1.347
0.497,1.693,1.322
0.479,1.786,1.253
0.473,1.81,1.238
0.472,1.865,1.204
0.454,1.905,1.179
0.447,1.955,1.181
0.451,1.985,1.186
0.41,2.016,1.159
0.442,1.945,1.131
0.434,1.907,1.077
0.421,1.912,1.06
0.417,1.886,1.022
0.414,1.859,0.966
0.399,1.789,0.938
0.416,1.742,0.942
0.423,1.657,0.927
0.43,1.607,0.929
0.433,1.584,0.917
0.432,1.535,0.896
0.431,1.512,0.867
0.436,1.451,0.851
0.44,1.414,0.819
0.449,1.331,0.803
0.455,1.241,0.807
0.468,1.199,0.801
0.473,1.129,0.793
0.484,1.095,0.795
0.52,1.008,0.814
0.536,0.964,0.874
0.545,0.881,0.904
0.568,0.808,1.004
0.54,0.792,1.039
0.567,0.646,1.044
0.597,0.637,1.163
0.614,0.526,1.201
0.695,0.515,1.42
0.482,0.698,1.172
0.552,0.613,1.179
0.574,0.583,1.126
0.583,0.588,1.107
0.591,0.56,1.083
0.565,0.537,1.072
0.543,0.491,1.073
0.539,0.474,1.081
0.543,0.421,1.087
0.55,0.377,1.096
0.563,0.356,1.093
0.571,0.308,1.097
0.607,0.274,1.14
0.626,0.219,1.177
0.624,0.201,1.264
0.608,0.181,1.304
0.6,0.165,1.346
0.592,0.138,1.339
0.592,0.057,1.29
0.609,0.022,1.259
0.619,-0.026,1.245
0.613,-0.062,1.217
0.573,-0.149,1.215
0.557,-0.237,1.227
0.521,-0.276,1.283
0.47,-0.331,1.294
0.44,-0.41,1.218
0.401,-0.456,1.182
0.387,-0.545,1.149
0.34,-0.644,0.978
0.306,-0.648,0.936
0.33,-0.655,0.967
0.335,-0.632,0.974
0.37,-0.582,0.992
0.377,-0.562,0.925
0.391,-0.491,0.929
0.516,-0.38,0.934
0.545,-0.264,1.151
0.674,0.011,1.043
0.666,-0.111,0.805
0.835,-0.216,1.175
0.824,-0.321,1.27
0.784,-0.444,1.357
0.704,-0.519,1.386
0.598,-0.672,1.371
0.549,-0.737,1.264
0.49,-0.841,1.213
0.482,-0.914,1.149
0.492,-0.95,1.105
0.483,-1.025,1.082
0.466,-1.091,1.003
0.424,-1.115,0.964
0.411,-1.146,0.893
0.4,-1.141,0.835
0.387,-1.148,0.792
0.394,-1.065,0.815
0.416,-1.158,0.744
0.363,-1.158,0.689
0.361,-1.107,0.701
0.368,-1.095,0.729
0.352,-1.194,0.726
0.342,-1.245,0.77
0.327,-1.261,0.847
0.311,-1.311,0.883
0.305,-1.254,0.97
0.347,-1.337,1.028
0.278,-1.352,0.996
0.287,-1.303,1.059
0.322,-1.355,1.045
0.31,-1.454,1.031
0.29,-1.487,1.008
0.254,-1.519,1.011
0.24,-1.545,0.985
0.207,-1.554,0.921
0.181,-1.589,0.888
0.159,-1.516,0.852
0.228,-1.387,0.891
0.245,-1.419,0.869
0.183,-1.397,0.777
0.155,-1.325,0.75
0.169,-1.28,0.709
0.189,-1.261,0.659
0.201,-1.236,0.644
0.206,-1.207,0.658
0.218,-1.202,0.691
0.219,-1.237,0.702
0.22,-1.214,0.747
0.243,-1.187,0.771
0.276,-1.148,0.82
0.289,-1.151,0.863
0.314,-1.111,0.89
0.339,-1.044,0.959
0.383,-1.031,0.997
0.41,-1.071,1.034
0.409,-1.054,1.059
0.392,-1.043,1.028
0.375,-1.077,0.993
0.359,-1.091,0.942
0.363,-1.083,0.94
0.335,-1.035,0.893
0.327,-1.018,0.822
0.328,-1.005,0.794
0.329,-0.972,0.759
0.333,-0.956,0.739
0.331,-0.968,0.725
0.317,-0.951,0.699
0.298,-0.894,0.697
0.29,-0.844,0.693
0.322,-0.839,0.741
0.335,-0.813,0.756
0.344,-0.755,0.795
0.36,-0.723,0.818
0.368,-0.642,0.855
0.41,-0.65,0.953
0.408,-0.619,0.969
0.39,-0.595,0.976
0.405,-0.594,1.003
0.451,-0.581,1.024
0.477,-0.582,1.017
0.45,-0.449,1.07
0.539,-0.316,1.167
0.547,-0.291,1.241
0.512,-0.323,1.188
0.515,-0.356,1.103
0.518,-0.349,1.066
0.526,-0.315,1.06
0.522,-0.262,1.055
0.519,-0.238,1.056
0.532,-0.183,1.055
0.537,-0.141,1.059
0.57,-0.071,1.069
0.59,-0.005,1.108
0.61,0.016,1.139
0.61,0.05,1.149
0.614,0.084,1.213
0.637,0.127,1.246
0.656,0.155,1.278
0.682,0.19,1.285
0.729,0.208,1.246
0.761,0.248,1.285
0.769,0.408,1.292
0.773,0.409,1.311
0.772,0.439,1.332
0.756,0.432,1.235
0.71,0.457,1.183
0.744,0.447,1.133
0.763,0.557,1.157
0.785,0.583,1.136
0.747,0.788,1.103
0.763,0.717,1.228
0.833,0.658,1.204
0.726,0.908,1.13
0.703,1.093,1.122
0.739,1.069,1.157
0.869,1.093,1.243
0.866,1.224,1.359
0.836,1.275,1.416
0.764,1.355,1.428
0.767,1.422,1.443
0.711,1.492,1.406
0.716,1.469,1.386
0.779,1.509,1.473
0.738,1.634,1.494
0.74,1.655,1.567
0.723,1.762,1.575
0.698,1.889,1.523
0.694,1.903,1.452
0.672,1.95,1.407
0.659,1.989,1.356
0.656,2.097,1.334
0.669,2.148,1.28
0.698,2.141,1.227
0.642,2.193,1.181
0.614,2.21,1.084
0.638,2.148,1.058
0.624,2.135,0.997
0.611,2.128,0.981
0.63,2.079,0.933
0.632,1.916,0.922
0.611,1.891,0.865
0.599,1.879,0.888
0.614,1.777,0.896
0.622,1.726,0.883
0.618,1.642,0.853
0.621,1.559,0.811
0.656,1.52,0.821
0.67,1.448,0.818
0.658,1.414,0.807
0.699,1.337,0.825
0.714,1.302,0.852
0.734,1.215,0.868
0.738,1.14,0.878
0.754,1.11,0.905
0.776,1.002,0.96
0.792,0.94,1.078
0.847,0.834,1.197
0.774,0.973,1.037
0.76,0.819,1.095
0.791,0.697,1.108
0.808,0.658,1.132
0.828,0.582,1.153
0.843,0.537,1.19
0.785,0.466,1.188
0.733,0.389,1.154
0.726,0.352,1.096
0.723,0.264,1.067
0.717,0.194,1.032
0.695,0.176,1.026
0.681,0.143,1
0.667,0.103,0.991
0.673,0.022,0.997
0.671,0.005,1.03
0.659,0.011,1.052
0.658,0.019,1.083
0.638,0.027,1.081
0.612,0.014,1.065
0.61,0.001,1.071
0.632,-0.009,1.08
0.652,-0.027,1.148
0.684,-0.043,1.326
0.674,-0.103,1.299
0.66,-0.143,1.33
0.637,-0.206,1.35
0.637,-0.266,1.397
0.626,-0.308,1.384
0.643,-0.378,1.381
0.641,-0.409,1.279
0.56,-0.495,1.187
0.546,-0.543,1.088
0.528,-0.59,0.995
0.525,-0.662,0.969
0.501,-0.71,0.882
0.457,-0.704,0.975
0.522,-0.742,1.044
0.51,-0.766,1.11
0.478,-0.815,1.139
0.468,-0.847,1.179
0.463,-0.847,1.216
0.468,-0.828,1.226
0.475,-0.774,1.232
0.493,-0.739,1.363
0.519,-0.693,1.274
0.533,-0.715,1.324
0.553,-0.742,1.341
0.56,-0.782,1.362
0.557,-0.798,1.335
0.544,-0.834,1.314
0.537,-0.871,1.25
0.504,-0.895,1.136
0.459,-0.954,1.069
0.429,-1.118,0.941
0.375,-1.059,0.887
0.35,-1.145,0.788
0.295,-1.111,0.822
0.293,-1.196,0.767
0.221,-1.184,0.681
0.181,-1.174,0.73
0.211,-1.146,0.779
0.218,-1.104,0.826
0.142,-1.101,0.683
0.151,-1.244,0.701
0.132,-1.117,0.74
0.119,-1.09,0.753
0.136,-1.1,0.759
0.135,-1.237,0.746
0.128,-1.146,0.736
0.123,-1.186,0.708
0.097,-1.194,0.69
0.069,-1.221,0.674
0.057,-1.225,0.652
0.061,-1.223,0.65
0.08,-1.209,0.655
0.092,-1.189,0.639
0.105,-1.18,0.624
0.138,-1.16,0.63
0.16,-1.151,0.673
0.184,-1.151,0.696
0.186,-1.173,0.733
0.194,-1.191,0.871
0.2,-1.227,0.762
0.194,-1.238,0.771
0.184,-1.258,0.778
0.188,-1.273,0.79
0.213,-1.264,0.796
0.25,-1.222,0.799
0.261,-1.188,0.842
0.203,-1.184,0.687
0.319,-1.138,0.878
0.448,-1.058,1.094
0.398,-0.952,1.129
0.253,-1.051,0.776
0.252,-1.089,0.673
0.353,-1.06,0.674
0.371,-1.014,0.722
0.409,-1.016,0.856
0.373,-1.015,0.879
0.359,-1,0.915
0.387,-1.014,0.888
0.413,-1.023,0.83
0.46,-0.943,0.885
0.465,-0.981,0.889
0.454,-0.969,0.921
0.482,-0.964,0.943
0.524,-1.046,0.999
0.497,-0.845,0.957
0.431,-0.842,0.935
0.458,-0.868,0.924
0.431,-0.679,0.892
0.518,-0.749,0.92
0.529,-0.676,0.963
0.509,-0.635,1.036
0.506,-0.579,1.062
0.493,-0.506,1.106
0.482,-0.491,1.107
0.479,-0.439,1.093
0.508,-0.377,1.142
0.54,-0.368,1.161
0.543,-0.323,1.179
0.548,-0.294,1.189
0.55,-0.259,1.185
0.56,-0.262,1.201
0.576,-0.275,1.179
0.6,-0.251,1.129
0.656,-0.254,1.297
0.666,-0.263,1.276
0.652,-0.264,1.258
0.664,-0.248,1.247
0.673,-0.229,1.229
0.68,-0.179,1.23
0.684,-0.138,1.256
0.706,-0.125,1.28
0.721,-0.057,1.281
0.743,0.108,1.32
0.778,0.029,1.332
0.783,0.177,1.401
0.761,0.158,1.417
0.825,0.227,1.465
0.833,0.261,1.598
0.848,0.229,1.607
0.842,0.256,1.615
0.833,0.253,1.496
0.844,0.401,1.496
0.871,0.415,1.463
0.924,0.442,1.475
0.785,0.579,1.497
0.747,0.773,1.498
0.956,0.469,1.571
0.933,0.878,1.605
0.718,1.091,1.506
0.779,0.967,1.511
0.914,0.977,1.375
0.75,1.214,1.394
0.767,1.216,1.459
0.837,1.183,1.49
0.755,1.414,1.424
0.771,1.441,1.405
0.723,1.577,1.366
0.758,1.562,1.386
0.759,1.69,1.397
0.722,1.797,1.323
0.722,1.832,1.296
0.728,1.899,1.306
0.724,1.939,1.351
0.679,2.041,1.338
0.672,2.104,1.309
0.659,2.144,1.289
0.651,2.193,1.245
0.637,2.221,1.217
0.652,2.204,1.194
0.631,2.216,1.118
0.608,2.238,1.107
0.603,2.272,1.017
0.607,2.276,0.899
0.66,2.162,0.913
0.649,2.078,0.878
0.551,2.004,0.848
0.545,1.901,0.796
0.57,1.851,0.774
0.601,1.745,0.746
0.606,1.708,0.736
0.613,1.63,0.736
0.625,1.538,0.755
0.661,1.494,0.772
0.665,1.414,0.775
0.673,1.36,0.799
0.755,1.209,0.857
0.741,1.155,0.893
0.708,1.071,0.875
0.862,0.874,0.922
0.777,0.828,0.951
0.782,0.761,1.02
0.813,0.679,1.204
0.809,0.595,1.255
0.721,0.697,1.061
0.81,0.63,1.109
0.821,0.555,1.074
0.817,0.521,1.073
0.801,0.442,1.077
0.783,0.351,1.093
0.746,0.307,1.098
0.727,0.232,1.089
0.695,0.202,1.052
0.683,0.185,1.037
0.68,0.196,1.014
0.678,0.193,1
0.685,0.173,0.987
0.703,0.172,1.011
0.711,0.17,1.035
0.716,0.17,1.097
0.729,0.158,1.129
0.734,0.115,1.198
0.752,0.081,1.234
0.768,-0.014,1.324
0.775,-0.067,1.406
0.76,-0.182,1.431
0.752,-0.275,1.482
0.744,-0.325,1.526
0.728,-0.371,1.493
0.696,-0.391,1.449
0.662,-0.435,1.431
0.638,-0.446,1.363
0.607,-0.453,1.331
0.59,-0.469,1.239
0.589,-0.498,1.145
0.557,-0.578,1.061
0.516,-0.58,0.908
0.512,-0.564,0.885
0.509,-0.615,0.845
0.514,-0.595,0.921
0.531,-0.626,0.93
0.528,-0.709,0.919
0.627,-0.717,1.082
0.585,-0.743,1.054
0.735,-0.505,1.246
0.546,-0.53,0.976
0.904,-0.848,1.228
0.899,-0.879,1.437
0.723,-0.851,1.414
0.645,-0.914,1.271
0.678,-0.945,1.196
0.72,-0.962,1.123
0.712,-1.004,0.948
0.663,-1.068,0.786
0.617,-1.28,0.749
0.595,-1.371,0.765
0.525,-1.494,0.781
0.483,-1.59,0.813
0.431,-1.612,0.853
0.405,-1.646,0.865
0.403,-1.627,0.89
0.413,-1.609,0.926
0.435,-1.57,0.952
0.433,-1.539,1.017
0.47,-1.4,1.054
0.413,-1.557,0.926
0.361,-1.559,0.817
0.304,-1.44,0.833
0.3,-1.308,0.742
0.385,-1.454,0.783
0.295,-1.549,0.717
0.214,-1.405,0.696
0.207,-1.353,0.63
0.229,-1.319,0.593
0.229,-1.354,0.471
0.222,-1.37,0.439
0.205,-1.427,0.442
0.183,-1.47,0.423
0.151,-1.472,0.442
0.165,-1.481,0.461
0.172,-1.449,0.494
0.191,-1.433,0.501
0.2,-1.402,0.496
0.23,-1.384,0.518
0.258,-1.366,0.533
0.264,-1.322,0.548
0.285,-1.306,0.545
0.312,-1.29,0.557
0.314,-1.226,0.614
0.335,-1.223,0.648
0.378,-1.234,0.738
0.411,-1.189,0.859
0.362,-1.151,0.792
0.414,-1.174,0.808
0.436,-1.143,0.89
0.468,-1.127,0.905
0.473,-1.086,0.964
0.51,-1.086,1.008
0.509,-1.132,0.988
0.519,-1.118,1.011
0.544,-1.105,1.06
0.563,-1.098,1.088
0.557,-1.078,1.086
0.529,-1.073,1.058
0.535,-1.077,0.994
0.547,-1.075,0.96
0.576,-1.032,0.959
0.566,-0.947,0.884
0.557,-0.97,0.891
0.549,-0.919,0.865
0.522,-0.875,0.785
0.561,-0.863,0.826
0.598,-0.798,0.915
0.619,-0.783,0.914
0.595,-0.765,0.917
0.596,-0.713,0.996
0.609,-0.73,0.979
0.571,-0.655,0.964
0.605,-0.611,1.051
0.651,-0.601,1.083
0.509,-0.549,1.035
0.607,-0.636,1.019
0.679,-0.173,1.177
0.763,-0.339,1.342
0.644,-0.29,1.132
0.624,-0.315,1.017
0.671,-0.38,1.041
0.75,-0.379,1.138
0.716,-0.343,1.171
0.689,-0.286,1.202
0.692,-0.259,1.204
0.766,-0.19,1.212
0.796,-0.067,1.227
0.829,-0.003,1.235
0.864,0.103,1.254
0.874,0.234,1.306
0.83,0.273,1.309
0.877,0.308,1.352
0.957,0.401,1.453
0.881,0.342,1.418
0.894,0.357,1.439
0.908,0.389,1.456
0.896,0.424,1.345
0.905,0.427,1.347
0.901,0.53,1.346
0.904,0.562,1.318
0.931,0.596,1.322
0.899,0.636,1.294
0.879,0.812,1.306
0.952,0.716,1.368
0.912,0.867,1.371
0.881,1.059,1.33
0.867,1.176,1.242
0.894,1.258,1.371
0.869,1.298,1.262
0.859,1.311,1.285
0.782,1.482,1.251
0.835,1.419,1.329
0.783,1.56,1.325
0.746,1.65,1.292
0.775,1.609,1.385
0.752,1.768,1.417
0.72,1.996,1.416
0.723,1.912,1.412
0.727,2.021,1.399
0.708,2.084,1.395
0.688,2.196,1.372
0.685,2.21,1.361
0.644,2.297,1.342
0.624,2.354,1.265
0.612,2.407,1.224
0.614,2.378,1.147
0.608,2.38,1.078
0.583,2.368,1.03
0.57,2.348,0.932
0.579,2.271,0.894
0.571,2.196,0.829
0.564,2.12,0.776
0.568,2.046,0.749
0.58,1.995,0.756
0.605,1.857,0.786
0.609,1.735,0.816
0.611,1.664,0.824
0.622,1.519,0.854
0.648,1.459,0.94
0.665,1.346,0.957
0.666,1.308,0.983
0.697,1.215,0.993
0.708,1.118,1.01
0.721,1.085,1.017
0.707,1.023,1.016
0.709,0.982,1.017
0.718,0.892,1.019
0.717,0.846,1.04
0.77,0.767,1.073
0.786,0.704,1.099
0.702,0.742,0.96
0.728,0.696,0.98
0.752,0.644,1.012
0.788,0.614,1.036
0.804,0.561,1.102
0.799,0.528,1.145
0.773,0.43,1.155
0.767,0.251,1.159
0.772,0.259,1.157
0.773,0.175,1.15
0.77,0.156,1.151
0.772,0.125,1.166
0.807,0.099,1.185
0.783,0.084,1.179
0.761,0.063,1.231
0.795,0.016,1.277
0.82,0.017,1.378
0.821,0.019,1.427
0.801,0.012,1.426
0.793,-0.026,1.383
0.775,-0.067,1.284
0.758,-0.177,1.234
0.748,-0.279,1.15
0.722,-0.333,1.115
0.689,-0.461,1.084
0.669,-0.533,1.103
0.627,-0.601,1.117
0.603,-0.661,1.16
0.566,-0.704,1.226
0.569,-0.756,1.265
0.541,-0.752,1.208
0.51,-0.699,1.227
0.561,-0.625,1.204
0.588,-0.683,1.2
0.654,-0.708,1.186
0.641,-0.673,1.112
0.681,-0.677,1.258
0.706,-0.697,1.241
0.703,-0.789,1.2
0.642,-0.804,1.201
0.562,-0.836,1.1
0.403,-0.948,0.804
0.564,-1.167,0.956
0.56,-1.261,1.047
0.487,-1.122,1.031
0.33,-1.091,0.976
0.328,-1.12,0.959
0.373,-1.119,1.053
0.454,-1.051,1.105
0.472,-1.017,1.144
0.46,-1.021,1.106
0.423,-1.022,1.067
0.414,-1.021,0.979
0.428,-1.036,0.863
0.416,-1.07,0.803
0.402,-1.073,0.714
0.366,-1.072,0.689
0.347,-1.079,0.67
0.323,-1.086,0.677
0.311,-1.099,0.686
0.305,-1.139,0.68
0.313,-1.127,0.703
0.274,-1.221,0.671
0.266,-1.173,0.776
0.212,-1.071,0.704
0.172,-1.271,0.528
0.247,-1.301,0.66
0.242,-1.268,0.712
0.223,-1.293,0.745
0.194,-1.332,0.715
0.19,-1.314,0.629
0.196,-1.303,0.592
0.219,-1.274,0.592
0.225,-1.256,0.603
0.225,-1.25,0.608
0.241,-1.264,0.621
0.213,-1.252,0.532
0.293,-1.225,0.796
0.337,-1.233,0.802
0.326,-1.254,0.797
0.299,-1.243,0.777
0.301,-1.213,0.748
0.372,-1.2,0.818
0.45,-1.196,0.855
0.459,-1.18,0.903
0.439,-1.175,0.931
0.431,-1.188,0.94
0.42,-1.151,0.943
0.427,-1.133,0.92
0.449,-1.133,0.898
0.488,-1.123,0.935
0.472,-1.055,0.885
0.464,-0.984,0.874
0.493,-0.983,0.891
0.509,-1.053,0.886
0.5,-0.995,0.893
0.509,-1.016,0.858
0.488,-1.039,0.829
0.491,-1.021,0.817
0.521,-1.018,0.84
0.553,-1.021,0.843
0.552,-1.005,0.849
0.551,-1.01,0.867
0.547,-0.988,0.883
0.553,-0.909,0.946
0.543,-0.854,0.97
0.556,-0.924,0.954
0.539,-0.82,0.977
0.58,-0.892,0.989
0.567,-0.815,1.041
0.569,-0.776,1.103
0.574,-0.693,1.136
0.582,-0.639,1.179
0.59,-0.607,1.182
0.607,-0.597,1.139
0.607,-0.433,1.203
0.627,-0.374,1.191
0.641,-0.37,1.189
0.649,-0.359,1.238
0.627,-0.287,1.216
0.62,-0.407,1.15
0.594,-0.338,1.08
0.621,-0.285,1.004
0.658,-0.312,1.054
0.732,-0.332,1.112
0.738,-0.317,1.199
0.718,-0.295,1.249
0.723,-0.204,1.268
0.74,-0.155,1.298
0.773,-0.074,1.296
0.793,-0.041,1.281
0.819,-0.019,1.295
0.798,0.089,1.303
0.908,0.131,1.349
0.904,0.251,1.51
0.886,0.254,1.547
0.89,0.265,1.542
0.903,0.249,1.408
0.904,0.323,1.446
0.908,0.413,1.52
0.949,0.524,1.488
0.964,0.552,1.511
0.998,0.609,1.514
0.894,0.932,1.484
0.961,0.823,1.574
1.055,0.706,1.593
0.935,0.88,1.383
0.832,1.222,1.316
0.922,1.206,1.304
0.963,1.225,1.303
0.893,1.398,1.301
0.834,1.46,1.237
0.859,1.423,1.258
0.75,1.567,1.331
0.75,1.719,1.345
0.826,1.714,1.405
0.858,1.859,1.494
0.769,1.976,1.464
0.759,2.093,1.432
0.795,2.1,1.418
0.797,2.132,1.413
0.759,2.23,1.376
0.72,2.351,1.361
0.732,2.368,1.37
0.753,2.36,1.393
0.714,2.421,1.383
0.696,2.42,1.333
0.724,2.382,1.318
0.729,2.349,1.274
0.71,2.335,1.203
0.695,2.296,1.159
0.709,2.254,1.117
0.726,2.151,1.098
0.719,2.056,1.039
0.705,2.003,0.875
0.697,1.912,0.927
0.686,1.848,0.835
0.7,1.715,0.794
0.714,1.539,0.793
0.709,1.533,0.779
0.707,1.413,0.769
0.73,1.34,0.797
0.744,1.199,0.775
0.739,1.029,0.782
0.755,1.055,0.795
0.757,0.957,0.816
0.778,0.892,0.907
0.817,0.833,0.962
0.804,0.7,1.065
0.801,0.704,1.099
0.787,0.677,1.086
0.863,0.548,1.128
0.883,0.501,1.178
0.872,0.488,1.191
0.87,0.445,1.237
0.871,0.376,1.29
0.906,0.349,1.311
0.871,0.334,1.291
0.78,0.313,1.194
0.746,0.247,1.151
0.76,0.215,1.117
0.767,0.159,1.102
0.763,0.124,1.071
0.756,0.091,1.057
0.756,-0.016,1.077
0.751,-0.063,1.146
0.721,-0.132,1.191
0.715,-0.18,1.282
0.71,-0.195,1.346
0.707,-0.204,1.361
0.711,-0.195,1.367
0.736,-0.211,1.347
0.871,-0.267,1.302
0.765,-0.312,1.283
0.774,-0.337,1.293
0.78,-0.372,1.337
0.793,-0.392,1.355
0.791,-0.43,1.336
0.789,-0.523,1.303
0.771,-0.574,1.253
0.755,-0.665,1.269
0.728,-0.732,1.208
0.639,-0.737,1.089
0.623,-0.684,1.095
0.637,-0.7,1.072
0.627,-0.674,1.087
0.639,-0.697,1.142
0.62,-0.754,1.203
0.692,-0.856,1.315
0.656,-0.995,1.309
0.756,-0.923,1.508
0.521,-0.868,1.002
0.821,-1.058,1.371
0.913,-1.172,1.499
0.832,-1.129,1.477
0.692,-1.159,1.367
0.712,-1.208,1.365
0.701,-1.2,1.24
0.633,-1.183,1.133
0.588,-1.172,1.005
0.555,-1.164,0.898
0.485,-1.181,0.849
0.463,-1.166,0.813
0.415,-1.138,0.799
0.372,-1.088,0.774
0.366,-1.051,0.718
0.38,-1.034,0.663
0.383,-1.037,0.64
0.376,-1.063,0.604
0.346,-1.076,0.602
0.337,-1.121,0.617
0.301,-1.157,0.578
0.282,-1.198,0.552
0.277,-1.208,0.493
0.277,-1.193,0.416
0.273,-1.185,0.396
0.288,-1.136,0.401
0.256,-1.136,0.291
0.207,-1.215,0.195
0.195,-1.287,0.195
0.245,-1.293,0.43
0.222,-1.319,0.421
0.201,-1.347,0.422
0.198,-1.39,0.418
0.232,-1.395,0.395
0.234,-1.434,0.324
0.27,-1.331,0.356
0.308,-1.383,0.425
0.333,-1.396,0.488
0.334,-1.359,0.499
0.348,-1.308,0.533
0.407,-1.294,0.574
0.432,-1.291,0.662
0.432,-1.288,0.779
0.424,-1.286,0.832
0.444,-1.351,0.853
0.452,-1.362,0.895
0.486,-1.338,0.918
0.499,-1.338,0.927
0.522,-1.336,0.978
0.498,-1.317,0.942
0.501,-1.307,0.936
0.533,-1.299,0.931
0.551,-1.261,0.925
0.55,-1.228,0.906
0.551,-1.186,0.901
0.567,-1.219,0.894
0.584,-1.231,0.908
0.579,-1.237,0.889
0.575,-1.145,0.863
0.586,-1.102,0.851
0.619,-1.056,0.854
0.624,-1.039,0.838
0.617,-0.986,0.818
0.613,-0.937,0.786
0.636,-0.899,0.851
0.66,-0.854,0.877
0.661,-0.89,0.901
0.67,-0.906,0.915
0.688,-0.885,0.949
0.708,-0.86,1.03
0.736,-0.784,1.062
0.749,-0.792,1.084
0.751,-0.777,1.096
0.774,-0.754,1.101
0.776,-0.735,1.085
0.773,-0.691,1.075
0.747,-0.665,0.98
0.831,-0.448,1.122
0.835,-0.514,1.036
0.89,-0.494,1.098
0.856,-0.457,1.071
0.85,-0.394,1.074
0.863,-0.409,1.109
0.841,-0.234,1.101
0.861,-0.17,1.139
0.965,-0.168,1.186
1.009,-0.115,1.296
1.014,-0.067,1.363
0.95,0.045,1.348
0.998,0.053,1.351
1.156,0.108,1.634
1.084,0.213,1.66
1.045,0.131,1.566
1.03,0.147,1.548
1.014,0.219,1.463
1.023,0.287,1.51
1.079,0.338,1.484
1.046,0.483,1.511
1.061,0.477,1.485
1.098,0.445,1.487
0.979,0.586,1.452
0.908,0.891,1.539
1.148,0.524,1.592
1.12,0.616,1.596
0.965,1.137,1.484
1.004,1.123,1.544
1.084,1.125,1.574
1.099,1.2,1.728
1.038,1.215,1.672
1,1.238,1.748
0.993,1.159,1.775
0.935,1.471,1.781
0.891,1.537,1.772
0.944,1.642,1.805
0.983,1.762,1.786
0.965,2.035,1.77
0.99,2.033,1.738
0.898,2.176,1.698
0.857,2.304,1.6
0.845,2.292,1.521
0.831,2.355,1.484
0.81,2.37,1.401
0.772,2.355,1.376
0.752,2.301,1.314
0.689,2.276,1.265
0.65,2.277,1.175
0.648,2.233,1.103
0.669,2.121,1.102
0.658,2.016,1.049
0.626,1.968,0.997
0.627,1.833,0.931
0.654,1.767,0.923
0.644,1.659,0.925
0.637,1.601,0.932
0.644,1.491,0.949
0.649,1.412,0.994
0.644,1.384,1.004
0.649,1.325,1.006
0.655,1.3,0.996
0.67,1.255,0.989
0.673,1.195,0.968
0.681,1.155,0.966
0.687,1.064,0.957
0.676,1.031,0.944
0.696,0.985,0.954
0.669,0.965,0.956
0.662,0.901,0.901
0.751,0.927,1.139
0.795,0.883,1.285
0.811,0.879,1.371
0.816,0.759,1.48
0.793,0.744,1.54
0.801,0.744,1.623
0.89,0.696,1.675
0.896,0.611,1.71
0.941,0.566,1.746
0.906,0.493,1.722
0.871,0.436,1.706
0.897,0.3,1.73
0.891,0.281,1.61
0.841,0.262,1.493
0.795,0.191,1.425
0.775,0.105,1.322
0.783,0.072,1.322
0.797,0.069,1.335
0.791,0.073,1.331
0.792,0,1.339
0.824,-0.115,1.376
0.843,-0.16,1.454
0.872,-0.186,1.517
0.867,-0.17,1.637
0.856,-0.135,1.674
0.865,-0.047,1.649
0.877,-0.026,1.481
0.888,-0.015,1.31
0.866,-0.014,1.237
0.856,-0.048,1.127
0.826,-0.174,1.078
0.809,-0.287,1.06
0.809,-0.32,1.065
0.838,-0.44,1.071
0.852,-0.598,1.051
0.821,-0.661,0.987
0.79,-0.701,0.939
0.781,-0.722,0.898
0.762,-0.784,0.881
0.76,-0.759,0.88
0.78,-0.744,0.769
0.824,-0.736,0.798
0.861,-0.73,0.854
0.849,-0.754,0.874
0.832,-0.852,0.873
0.808,-0.911,0.873
0.748,-0.917,0.863
0.673,-0.922,0.851
0.676,-0.951,0.83
0.661,-0.956,0.823
0.513,-0.93,0.816
0.602,-0.925,0.795
0.594,-0.923,0.777
0.592,-0.9,0.729
0.577,-0.89,0.646
0.562,-0.871,0.6
0.561,-0.861,0.515
0.585,-0.88,0.48
0.59,-0.971,0.393
0.567,-1.025,0.337
0.524,-1.153,0.313
0.502,-1.239,0.296
0.52,-1.254,0.41
0.363,-1.436,0.263
0.314,-1.403,0.304
0.424,-1.424,0.559
0.409,-1.49,0.561
0.375,-1.539,0.551
0.36,-1.566,0.606
0.353,-1.528,0.579
0.316,-1.594,0.352
0.364,-1.71,0.37
0.415,-1.663,0.599
0.4,-1.659,0.73
0.363,-1.708,0.76
0.358,-1.736,0.777
0.376,-1.737,0.773
0.42,-1.71,0.782
0.444,-1.687,0.828
0.454,-1.642,0.856
0.451,-1.633,0.9
0.381,-1.59,0.894
0.506,-1.551,1.085
0.47,-1.588,1.092
0.414,-1.613,0.991
0.372,-1.611,0.92
0.367,-1.586,0.815
0.411,-1.523,0.811
0.438,-1.474,0.867
0.454,-1.435,0.914
0.47,-1.37,0.935
0.493,-1.358,0.971
0.544,-1.339,0.981
0.572,-1.311,1.022
0.542,-1.326,0.948
0.546,-1.334,0.933
0.519,-1.319,0.892
0.514,-1.265,0.872
0.528,-1.24,0.852
0.547,-1.21,0.83
0.553,-1.129,0.768
0.579,-1.089,0.741
0.591,-0.998,0.707
0.621,-0.961,0.713
0.612,-0.921,0.716
0.604,-0.905,0.747
0.594,-0.899,0.766
0.59,-0.873,0.779
0.593,-0.85,0.801
0.594,-0.72,0.812
0.613,-0.73,0.824
0.623,-0.689,0.847
0.601,-0.559,0.851
0.623,-0.52,0.929
0.663,-0.446,0.961
0.664,-0.364,1.01
0.653,-0.336,1.045
0.638,-0.28,1.058
0.643,-0.231,1.1
0.647,-0.195,1.107
0.679,-0.127,1.135
0.702,-0.076,1.211
0.726,0.024,1.24
0.737,0.153,1.303
0.764,0.199,1.381
0.759,0.336,1.384
0.765,0.44,1.428
0.814,0.5,1.483
0.833,0.635,1.551
0.827,0.688,1.549
0.81,0.827,1.55
0.802,0.998,1.524
0.793,0.914,1.467
0.808,1.249,1.536
0.889,1.195,1.608
0.841,1.164,1.44
0.854,1.199,1.374
0.805,1.192,1.345
0.646,1.235,1.334
0.654,1.265,1.217
0.632,1.301,1.265
0.773,1.372,1.543
0.96,1.689,1.715
0.954,1.681,1.743
0.882,1.672,1.62
0.786,1.779,1.498
0.643,1.693,1.353
0.63,1.622,1.44
0.674,1.507,1.542
0.68,1.49,1.531
0.671,1.651,1.539
0.706,1.541,1.407
0.674,1.695,1.353
0.641,1.686,1.066
0.676,1.557,0.897
0.637,1.481,0.856
0.643,1.322,0.874
0.624,1.237,0.861
0.556,1.162,0.838
0.528,1.078,0.808
0.483,1.018,0.835
0.494,0.91,0.841
0.459,0.837,0.848
0.368,0.675,0.866
0.33,0.517,0.913
0.271,0.454,0.937
0.269,0.308,0.989
0.784,-0.605,1.904
0.286,-0.214,1.064
0.226,-0.17,1.081
0.615,0.571,2.241
0.629,0.537,0.874
0.302,-0.101,0.785
0.386,-0.066,0.966
0.337,-0.124,0.978
0.255,-0.097,0.929
0.144,-0.204,1.09
-0.13,-0.239,1.142
-0.269,-0.237,1.26
-0.362,-0.257,1.108
0.046,-0.2,1.069
0.189,-0.146,0.961
0.273,-0.122,0.987
0.233,-0.127,1
0.122,-0.131,1.07
-0.034,-0.155,1.081
0.093,-0.091,1.039
0.169,-0.079,1.008
0.188,-0.062,0.998
0.171,-0.099,1.028
0.141,-0.097,1.041
0.088,-0.117,1.039
0.082,-0.08,1.031
0.104,-0.07,1.019
0.101,-0.055,1.022
0.097,-0.028,1.031
0.095,-0.023,1.023
0.112,-0.019,1.033
0.141,0.015,1.071
0.172,0.005,1.078
0.174,-0.024,1.091
0.171,-0.005,1.095
0.169,0.017,1.099
0.137,0.009,1.098
0.081,0.001,1.065
-0.083,-0.209,1.084
-0.105,-0.243,1.156
-0.136,-0.153,1.138
-0.114,-0.117,1.117
-0.037,-0.103,1.109
0,-0.093,1.104
0.005,-0.099,1.068
0.013,-0.081,1.108
0.023,-0.097,1.063
0.052,-0.092,1.078
0.108,-0.089,1.094
0.123,-0.083,1.089
0.142,-0.072,1.053
0.127,-0.049,1.057
0.13,-0.02,1.047
0.123,0.005,1.051
0.128,0.075,1.052
0.111,0.069,1.036
0.13,0.127,1.041
0.121,0.174,1.028
0.121,0.181,0.97
0.104,0.249,1.009
0.096,0.264,0.971
0.065,0.263,0.901
0.076,0.297,0.934
0.049,0.329,0.865
0.05,0.345,0.848
0.042,0.393,0.907
-0.002,0.396,0.723
-0.179,0.643,0.839
0.06,0.335,0.59
-0.2,0.588,0.602
-0.092,0.458,0.646
-0.062,0.542,0.631
-0.089,0.434,0.475
-0.058,0.519,0.571
-0.094,0.439,0.332
-0.098,0.426,0.369
-0.093,0.305,0.142
-0.1,0.293,0.034
-0.043,0.841,0.47
-0.064,-0.106,-0.36
-0.051,0.227,-0.208
-0.039,-0.003,-0.451
-0.016,-0.014,-0.49
0.023,0.06,-0.566
0.053,0.119,-0.634
0.123,0.153,-0.671
0.173,1.514,-0.681
-0.085,9.337,2.425
-0.264,-0.628,0.041
-0.232,-0.356,-0.271
-0.013,-0.286,-0.263
0.151,-0.047,-0.174
0.321,0.544,0.088
0.047,-0.112,-0.06
0.228,0.045,-0.041
0.153,0.308,-0.2
-0.394,3.019,-1.019
-0.149,1.994,-0.429
0.075,0.126,-0.15
0.147,0.224,-0.217
0.098,0.105,-0.24
0.098,0.319,-0.602
-0.556,2.278,-1.273
0.016,-0.051,-0.261
-0.021,-0.027,-0.335
0.095,-0.015,-0.416
0.05,-0.061,-0.394
-0.17,0.148,-0.827
-0.22,0.262,-0.719
-0.044,-0.016,-0.47
-0.037,0.033,-0.494
-0.039,0.054,-0.528
-0.031,0.067,-0.527
-0.024,0.089,-0.538
-0.022,0.11,-0.567
1.724,1.835,-3.958
-2.976,-1.737,-3.169
0.372,-0.156,-0.04
-0.534,-0.623,-1.107
-0.231,1.2,-4.071
-1.071,0.704,-0.112
-0.211,0.211,-0.813
0.008,-0.22,-1.243
-0.462,0.161,-1.005
-0.021,-0.132,-1.039
-0.115,-0.118,-0.985
-0.081,-0.156,-0.858
0.556,0.395,-0.111
0.223,-0.034,-0.63
-0.23,-0.004,-0.499
0.075,-0.158,-1.237
-0.149,-0.413,-1.157
-0.195,-0.331,-0.981
-0.137,-0.204,-1.035
-0.18,-0.232,-1.078
-0.146,-0.175,-1.124
-0.132,-0.154,-0.967
-0.066,-0.102,-0.981
0.016,-0.033,-0.763
-0.119,-0.133,-0.956
-0.144,-0.211,-1.045
-0.175,-0.235,-1.134
-0.108,-0.14,-0.748
-0.061,-0.123,-0.898
-0.183,-0.228,-1.102
-0.044,-0.035,-0.756
-0.1,-0.13,-1.023
-0.124,-0.161,-0.968
-0.1,-0.102,-0.857
-0.131,-0.19,-1.042
-0.095,-0.103,-0.929
-0.138,-0.211,-1.009
-0.135,-0.16,-0.966
-0.084,-0.133,-0.927
-0.158,-0.226,-1.054
-0.126,-0.142,-0.881
-0.062,-0.103,-0.979
-0.154,-0.244,-1.091
-0.108,-0.133,-0.88
-0.075,-0.145,-0.966
-0.112,-0.202,-1.023
-0.079,-0.127,-0.929
-0.076,-0.151,-0.969
-0.075,-0.159,-0.96
-0.078,-0.172,-0.959
-0.065,-0.157,-0.971
-0.091,-0.123,-0.956
-0.102,-0.109,-0.974
-0.109,-0.102,-0.98
-0.109,-0.119,-0.956
-0.111,-0.113,-0.972
-0.1,-0.118,-0.967
-0.107,-0.108,-0.985
-0.092,-0.115,-0.985
-0.113,-0.109,-0.969
-0.105,-0.113,-0.969
-0.105,-0.111,-0.963
-0.104,-0.107,-0.975
-0.1,-0.111,-0.978
-0.105,-0.106,-0.962
-0.104,-0.112,-0.976
-0.105,-0.108,-0.978
-0.104,-0.111,-0.98
-0.104,-0.11,-0.979
-0.107,-0.112,-0.969
-0.105,-0.111,-0.969
-0.103,-0.11,-0.964
-0.103,-0.111,-0.97
-0.104,-0.111,-0.97
-0.105,-0.113,-0.965
-0.105,-0.113,-0.979
-0.104,-0.112,-0.978
-0.105,-0.111,-0.976
-0.105,-0.113,-0.974
-0.106,-0.113,-0.968
-0.107,-0.112,-0.969
-0.104,-0.111,-0.967
-0.106,-0.113,-0.966
-0.102,-0.112,-0.971
-0.104,-0.112,-0.971
-0.107,-0.114,-0.978
-0.104,-0.115,-0.978
-0.103,-0.113,-0.973
-0.106,-0.113,-0.972
-0.106,-0.112,-0.969
-0.105,-0.113,-0.97
-0.106,-0.113,-0.968
-0.106,-0.112,-0.97
-0.104,-0.112,-0.973
-0.104,-0.112,-0.973
-0.106,-0.112,-0.977
-0.104,-0.112,-0.976
-0.106,-0.11,-0.972
-0.103,-0.111,-0.971
-0.104,-0.112,-0.966
-0.104,-0.113,-0.968
-0.103,-0.111,-0.97
-0.105,-0.111,-0.972
-0.102,-0.112,-0.973
-0.105,-0.111,-0.972
-0.105,-0.113,-0.974
-0.105,-0.114,-0.971
-0.103,-0.113,-0.972
-0.103,-0.112,-0.97
-0.104,-0.113,-0.965
-0.105,-0.112,-0.968
-0.104,-0.113,-0.971
-0.105,-0.112,-0.973
-0.103,-0.114,-0.974
-0.103,-0.112,-0.972
-0.106,-0.113,-0.973
-0.105,-0.112,-0.971
-0.104,-0.111,-0.971
-0.104,-0.113,-0.967
-0.103,-0.113,-0.968
-0.103,-0.112,-0.972
-0.105,-0.11,-0.971
-0.107,-0.111,-0.971
